"Time (s)","Linear Acceleration x (m/s^2)","Linear Acceleration y (m/s^2)","Linear Acceleration z (m/s^2)"
5.619986200E-2,0.000000000E0,0.000000000E0,0.000000000E0
6.119986200E-2,-1.110363007E-1,3.573417664E-3,-1.501803398E-1
6.619986200E-2,-1.752805710E-1,-2.524995804E-2,-2.111124992E-1
7.119986200E-2,-5.844879150E-2,-1.346764565E-1,-9.096670151E-2
7.619986200E-2,6.782674789E-2,-3.071279526E-1,5.707550049E-2
8.119986200E-2,-6.462097168E-3,-3.092355728E-1,4.245376587E-2
8.619986200E-2,-9.452676773E-2,-1.947436333E-1,4.128265381E-2
9.119986200E-2,-1.968953609E-1,-8.760595322E-2,1.344680786E-4
9.619986200E-2,-2.976634502E-1,-5.350303650E-2,-7.349395752E-2
1.011998620E-1,-3.674643040E-1,-5.115413666E-2,-1.871252060E-1
1.061998620E-1,-4.194138050E-1,-7.672739029E-2,-2.797145844E-1
1.111998620E-1,-4.150249958E-1,-1.313309669E-1,-3.662137985E-1
1.161998620E-1,-3.747642040E-1,-1.911005974E-1,-5.579700470E-1
1.211998620E-1,-3.738300800E-1,-2.227983475E-1,-6.823492050E-1
1.261998620E-1,-3.581848145E-1,-2.362556458E-1,-6.705756187E-1
1.311998620E-1,-3.470141888E-1,-2.310204506E-1,-5.105171204E-1
1.361998620E-1,-3.159029484E-1,-1.961822510E-1,-4.516611099E-1
1.411998620E-1,-2.421255112E-1,-1.729335785E-1,-3.499097824E-1
1.461998620E-1,-1.317191124E-1,-2.130122185E-1,-1.900978088E-1
1.511998620E-1,-7.136535645E-2,-2.552113533E-1,7.324361801E-2
1.561998620E-1,-4.812097549E-2,-2.899475098E-1,2.716784477E-1
1.611998620E-1,-6.945967674E-2,-2.377467155E-1,3.775658607E-1
1.661998620E-1,-1.223318577E-1,-2.034134865E-1,4.249153137E-1
1.711998620E-1,-1.842758656E-1,-1.564221382E-1,4.566102028E-1
1.761998620E-1,-2.338659763E-1,-1.042528152E-1,5.159077644E-1
1.811998620E-1,-2.978515625E-1,-8.796930313E-2,5.077643394E-1
1.861998620E-1,-3.764958382E-1,-1.409740448E-1,5.010485649E-1
1.911998620E-1,-4.522686005E-1,-5.006170273E-2,4.877691269E-1
1.961998620E-1,-4.931640625E-1,-2.174997330E-1,4.743590355E-1
2.011998620E-1,-4.961223602E-1,-3.182811737E-1,5.212616920E-1
2.061998620E-1,-5.347499847E-1,-3.487911224E-1,5.684061050E-1
2.111998620E-1,-6.590845585E-1,-3.220863342E-1,6.048698425E-1
2.161998620E-1,-8.306796551E-1,-2.577772141E-1,6.181073189E-1
2.211998620E-1,-1.008742929E0,-2.084236145E-1,6.067700386E-1
2.261998620E-1,-1.097497463E0,-2.138481140E-1,6.311120987E-1
2.311998620E-1,-1.105535507E0,-2.365307808E-1,7.106184959E-1
2.361998620E-1,-1.052469730E0,-3.163003922E-1,8.023805618E-1
2.411998620E-1,-9.805921316E-1,-4.072694778E-1,9.543876648E-1
2.461998620E-1,-8.438518047E-1,-4.916930199E-1,1.209127426E0
2.511998620E-1,-7.227642536E-1,-5.692248344E-1,1.523199081E0
2.561998620E-1,-7.294348478E-1,-6.268463135E-1,1.832169533E0
2.611998620E-1,-8.867402077E-1,-6.456508636E-1,2.176238060E0
2.661998620E-1,-1.103790283E0,-5.902800560E-1,2.404333115E0
2.711998620E-1,-1.185094595E0,-3.642606735E-1,2.443423271E0
2.761998620E-1,-1.591010809E0,-5.042648315E-1,2.357351303E0
2.811998620E-1,-2.236344576E0,-9.241957664E-1,2.219007492E0
2.861998620E-1,-1.669133544E0,-5.812788010E-1,2.276155472E0
2.911998620E-1,-1.254817963E0,-3.832254410E-1,1.793559074E0
2.961998620E-1,-1.168370247E0,-4.926295280E-1,1.299959183E0
3.011998620E-1,-9.913089275E-1,-5.051517487E-1,1.082186699E0
3.061998620E-1,-8.580340147E-1,-5.158963203E-1,8.670911789E-1
3.111998620E-1,-7.478848100E-1,-4.856557846E-1,5.909700394E-1
3.161998620E-1,-7.157245278E-1,-4.395785332E-1,3.246879578E-1
3.211998620E-1,-7.122151852E-1,-4.166073799E-1,8.288383484E-2
3.261998620E-1,-6.553896070E-1,-4.236321449E-1,-6.872463226E-2
3.311998620E-1,-5.782452226E-1,-4.217891693E-1,-1.509275436E-1
3.361998620E-1,-5.023804307E-1,-4.407033920E-1,-2.459945679E-1
3.411998620E-1,-4.859373569E-1,-3.910756111E-1,-2.895059586E-1
3.461998620E-1,-4.551351070E-1,-3.432025909E-1,-3.104667664E-1
3.511998620E-1,-4.453700185E-1,-2.835249901E-1,-3.259859085E-1
3.561998620E-1,-4.255320430E-1,-2.363028526E-1,-3.893909454E-1
3.611998620E-1,-4.349654317E-1,-1.968894005E-1,-4.522428513E-1
3.661998620E-1,-4.327257872E-1,-1.511058807E-1,-4.787263870E-1
3.711998620E-1,-4.007491469E-1,-8.272886276E-2,-4.447917938E-1
3.761998620E-1,-3.761557043E-1,-1.292419434E-2,-4.370136261E-1
3.811998620E-1,-3.848437369E-1,3.131866455E-2,-4.104175568E-1
3.861998620E-1,-3.205048144E-1,7.276058197E-2,-3.370885849E-1
3.911998620E-1,-2.156934142E-1,1.110672951E-1,-2.453498840E-1
3.961998620E-1,-1.316642165E-1,8.718776703E-2,-1.911067963E-1
4.011998620E-1,-2.681601048E-2,1.219239235E-1,-1.307420731E-1
4.061998620E-1,1.121059060E-1,1.318583488E-1,-9.486103058E-2
4.111998620E-1,2.559338212E-1,1.676011086E-1,-1.009159088E-1
4.161998620E-1,3.486508727E-1,2.164382935E-1,-9.049892426E-2
4.211998620E-1,4.110075235E-1,2.624192238E-1,-1.863288879E-2
4.261998620E-1,4.404795170E-1,2.813458443E-1,5.560588837E-2
4.311998620E-1,4.303075671E-1,2.979121208E-1,8.083820343E-2
4.361998620E-1,3.571212888E-1,3.022613525E-1,1.131639481E-1
4.411998620E-1,2.870239615E-1,2.883090973E-1,1.992254257E-1
4.461998620E-1,2.025671005E-1,2.744731903E-1,3.116092682E-1
4.511998620E-1,1.471654773E-1,1.913466454E-1,4.095306396E-1
4.561998620E-1,1.438382864E-1,9.775161743E-2,4.689893723E-1
4.611998620E-1,1.444812715E-1,2.515125275E-2,5.474138260E-1
4.661998620E-1,9.076279402E-2,-3.864860535E-2,6.406669617E-1
4.711998620E-1,4.009526968E-2,-4.609155655E-2,6.976957321E-1
4.761998620E-1,1.783877611E-3,1.079988480E-2,7.824926376E-1
4.811998620E-1,1.825848222E-2,2.229833603E-2,7.823925018E-1
4.861998620E-1,4.819554090E-2,2.675056458E-3,6.549835205E-1
4.911998620E-1,8.016711473E-2,-4.171323776E-2,5.465097427E-1
4.961998620E-1,8.392173052E-2,-5.763912201E-2,3.688182831E-1
5.011998620E-1,1.518195868E-1,-7.776498795E-2,2.371864319E-1
5.061998620E-1,2.256664038E-1,-1.287474632E-1,4.824638367E-2
5.111998620E-1,2.521918714E-1,-1.686959267E-1,-1.221647263E-1
5.161998620E-1,1.735045612E-1,-2.193121910E-1,-3.071060181E-1
5.211998620E-1,5.397386849E-2,-2.837581635E-1,-4.285955429E-1
5.261998620E-1,-2.952297032E-2,-2.655634880E-1,-4.471969604E-1
5.311998620E-1,-6.276093423E-2,-1.675772667E-1,-3.403997421E-1
5.361998620E-1,-1.482979059E-1,-1.138725281E-1,-3.721690178E-1
5.411998620E-1,-2.085364163E-1,-9.282255173E-2,-4.717197418E-1
5.461998620E-1,-3.102647364E-1,-1.023483276E-1,-5.587081909E-1
5.511998620E-1,-3.636189699E-1,-4.632997513E-2,-6.252431870E-1
5.561998620E-1,-3.249515593E-1,3.237390518E-2,-7.589397430E-1
5.611998620E-1,-3.228665888E-1,4.191398621E-2,-9.478330612E-1
5.661998620E-1,-2.600217462E-1,4.780292511E-3,-1.078467369E0
5.711998620E-1,-2.821636796E-1,-1.069402695E-1,-1.204886436E0
5.761998620E-1,-3.841305971E-1,-1.301136017E-1,-1.275413036E0
5.811998620E-1,-4.585876465E-1,-3.718566895E-2,-1.274637699E0
5.861998620E-1,-5.219561458E-1,2.346467972E-2,-1.180679798E0
5.911998620E-1,-5.133006573E-1,9.567928314E-2,-1.043875694E0
5.961998620E-1,-4.863445163E-1,7.708263397E-2,-1.036556244E0
6.011998620E-1,-5.711593628E-1,-1.302270889E-1,-1.270534039E0
6.061998620E-1,-7.044200897E-1,-2.650022507E-1,-1.300379753E0
6.111998620E-1,-8.417274952E-1,-1.279082298E-1,-1.448246956E0
6.161998620E-1,-1.069930911E0,9.382438660E-2,-1.477969170E0
6.211998620E-1,-1.316038609E0,3.447318077E-1,-1.408809662E0
6.261998620E-1,-1.411492944E0,5.092210770E-1,-9.449810982E-1
6.311998620E-1,-1.293817282E0,6.616373062E-1,-9.898042679E-1
6.361998620E-1,-8.999076486E-1,7.342915535E-1,-1.013886929E0
6.411998620E-1,-4.550089538E-1,5.749220848E-1,-1.083684921E0
6.461998620E-1,9.551642835E-2,3.080406189E-1,-7.254195213E-1
6.511998620E-1,4.456641972E-1,2.931118011E-3,-6.863079071E-1
6.561998620E-1,4.860732555E-1,-9.874629974E-2,-7.791070938E-1
6.611998620E-1,5.683187246E-1,-1.358003616E-1,-5.468578339E-1
6.661998620E-1,6.648784280E-1,-1.814813614E-1,6.114578247E-2
6.711998620E-1,7.738835812E-1,-3.170294762E-1,6.257781982E-1
6.761998620E-1,9.020275474E-1,-5.035815239E-1,1.112290382E0
6.811998620E-1,9.548458457E-1,-7.355122566E-1,1.229446888E0
6.861998620E-1,8.462695479E-1,-7.967419624E-1,7.383842468E-1
6.911998620E-1,5.875447989E-1,-2.983775139E-1,5.587997437E-1
6.961998620E-1,8.357366174E-2,3.265690804E-1,6.190652847E-1
7.011998620E-1,-4.343837202E-1,7.805023193E-1,8.607988358E-1
7.061998620E-1,-7.756031752E-1,1.045359135E0,1.001689911E0
7.111998620E-1,-8.700171113E-1,9.921889305E-1,1.029207230E0
7.161998620E-1,-7.003778219E-1,7.778534889E-1,9.914207458E-1
7.211998620E-1,-2.545132935E-1,4.862637520E-1,8.544130325E-1
7.261998620E-1,2.549991906E-1,1.327104568E-1,6.418600082E-1
7.311998620E-1,7.014030814E-1,-2.266840935E-1,5.175008774E-1
7.361998620E-1,9.997963309E-1,-4.484848976E-1,4.636611938E-1
7.411998620E-1,1.079009533E0,-5.644803047E-1,4.683885574E-1
7.461998620E-1,9.574189782E-1,-4.821004868E-1,4.738588333E-1
7.511998620E-1,6.857941747E-1,-2.365198135E-1,3.790187836E-1
7.561998620E-1,3.701277077E-1,6.589126587E-2,3.166294098E-1
7.611998620E-1,7.927481085E-2,2.921676636E-1,2.693090439E-1
7.661998620E-1,-1.437151432E-1,3.846044540E-1,2.219295502E-1
7.711998620E-1,-2.562569380E-1,3.637261391E-1,1.522531509E-1
7.761998620E-1,-3.322730362E-1,2.814917564E-1,2.830791473E-2
7.811998620E-1,-3.625550270E-1,1.629362106E-1,-6.085586548E-2
7.861998620E-1,-3.932751715E-1,2.184872627E-1,-1.712098122E-1
7.911998620E-1,-3.010289669E-1,2.169923782E-1,-2.108888626E-1
7.961998620E-1,-1.585965902E-1,1.170134544E-1,-2.820320129E-1
8.011998620E-1,-1.248785779E-1,2.886247635E-2,-4.063434601E-1
8.061998620E-1,-1.358645558E-1,-2.284049988E-4,-4.872555733E-1
8.111998620E-1,-1.611005068E-1,4.038858414E-2,-4.946498871E-1
8.161998620E-1,-2.253876030E-1,8.004522324E-2,-5.454521179E-1
8.211998620E-1,-2.502966821E-1,4.696702957E-2,-5.201354027E-1
8.261998620E-1,-2.135472596E-1,2.302360535E-2,-5.102691650E-1
8.311998620E-1,-1.350966543E-1,-1.320266724E-2,-4.443445206E-1
8.361998620E-1,-1.773922890E-2,-9.138250351E-2,-4.196166992E-1
8.411998620E-1,1.037641168E-1,-1.627745628E-1,-3.453636169E-1
8.461998620E-1,2.508629560E-1,-2.448182106E-1,-2.626581192E-1
8.511998620E-1,3.840659559E-1,-3.154816628E-1,-1.450176239E-1
8.561998620E-1,4.610909820E-1,-4.196805954E-1,2.347946167E-3
8.611998620E-1,4.987075627E-1,-4.807147980E-1,1.228685379E-1
8.661998620E-1,4.807877839E-1,-4.487304688E-1,1.690769196E-1
8.711998620E-1,3.543537855E-1,-1.741232872E-1,1.899318695E-1
8.761998620E-1,1.699909717E-1,1.679172516E-1,3.201723099E-1
8.811998620E-1,9.394009411E-2,4.167547226E-1,5.046577454E-1
8.861998620E-1,1.331626028E-1,4.772815704E-1,6.371259689E-1
8.911998620E-1,2.064879537E-1,3.480124474E-1,6.626548767E-1
8.961998620E-1,2.846024036E-1,1.271748543E-1,6.744956970E-1
9.011998620E-1,3.212941289E-1,-1.106977463E-2,6.648426056E-1
9.061998620E-1,1.193730459E-1,1.823444366E-1,4.734354019E-1
9.111998620E-1,-7.376876473E-2,3.899273872E-1,5.731744766E-1
9.161998620E-1,-9.945018589E-2,3.828935623E-1,6.060867310E-1
9.211998620E-1,-2.753833681E-2,2.084689140E-1,4.674835205E-1
9.261998620E-1,9.784500301E-2,1.226916313E-1,2.607822418E-1
9.311998620E-1,9.545442462E-2,1.141986847E-1,-9.642887115E-2
9.361998620E-1,-1.153235734E-1,1.269907951E-1,-4.635410309E-1
9.411998620E-1,-6.603430957E-2,1.099138260E-1,-6.209511757E-1
9.461998620E-1,-9.443894029E-3,8.510589600E-3,-6.900415421E-1
9.511998620E-1,1.596766561E-1,-1.795916557E-1,-5.903940201E-1
9.561998620E-1,2.865632176E-1,-4.322304726E-1,-4.066133499E-1
9.611998620E-1,4.547486305E-1,-6.272397041E-1,-2.138957977E-1
9.661998620E-1,7.002511024E-1,-7.746119499E-1,6.118774414E-3
9.711998620E-1,8.530327082E-1,-9.834952354E-1,4.669666290E-2
9.761998620E-1,7.948840857E-1,-1.004791260E0,-1.788148880E-1
9.811998620E-1,5.092580318E-1,-5.557250977E-1,-2.681074142E-1
9.861998620E-1,-5.281227827E-2,1.110515594E-1,-1.318044662E-1
9.911998620E-1,-7.762271166E-1,6.712222099E-1,-1.571655273E-2
9.961998620E-1,-1.049888611E0,9.910340309E-1,9.630870819E-2
1.001199862E0,-8.478053808E-1,9.705958366E-1,7.345771790E-2
1.006199862E0,-3.711800277E-1,6.777858734E-1,-4.682350159E-2
1.011199862E0,-5.367973819E-2,3.291764259E-1,-1.571292877E-1
1.016199862E0,-4.611521959E-3,5.388212204E-2,-1.057729721E-1
1.021199862E0,-1.298726350E-1,1.610565186E-2,-1.354217529E-2
1.026199862E0,-2.055304796E-1,2.132463455E-1,1.806068420E-2
1.031199862E0,-2.691287398E-1,1.937584877E-1,-1.303644180E-1
1.036199862E0,-1.935073584E-1,6.692934036E-2,-3.122644424E-1
1.041199862E0,-4.334277660E-2,-3.358697891E-2,-3.057384491E-1
1.046199862E0,-4.619498178E-2,-4.385185242E-2,-3.283319473E-1
1.051199862E0,-1.371735483E-1,8.848857880E-2,-2.907009125E-1
1.056199862E0,-2.413596362E-1,2.850985527E-1,-1.929206848E-1
1.061199862E0,-2.497742474E-1,3.884725571E-1,-1.304626465E-2
1.066199862E0,-1.996130347E-1,3.535280228E-1,3.327465057E-2
1.071199862E0,-1.964906007E-1,3.048710823E-1,1.259708405E-2
1.076199862E0,-2.658898234E-1,3.146848679E-1,1.985073090E-2
1.081199862E0,-3.836432397E-1,3.503017426E-1,-6.562232971E-3
1.086199862E0,-5.047246218E-1,3.463253975E-1,-7.468128204E-2
1.091199862E0,-5.194329619E-1,3.076748848E-1,-1.278905869E-1
1.096199862E0,-4.023357928E-1,2.087059021E-1,3.537654877E-2
1.101199862E0,-1.409884989E-1,-4.390621185E-2,5.305109024E-1
1.106199862E0,6.300150752E-1,-4.034051895E-1,1.010665894E0
1.111199862E0,5.764131546E-1,1.110930443E-1,5.240898132E-1
1.116199862E0,2.106740773E-1,5.476293564E-1,4.204826355E-1
1.121199862E0,-3.348051310E-1,6.765565872E-1,6.569528580E-1
1.126199862E0,-6.272679567E-1,5.437908173E-1,8.278474808E-1
1.131199862E0,-5.205596685E-1,3.002948761E-1,8.012323380E-1
1.136199862E0,-1.853609234E-1,6.382656097E-2,6.542587280E-1
1.141199862E0,1.065212414E-1,-5.350494385E-2,7.359266281E-1
1.146199862E0,2.512411177E-1,-1.620521545E-1,7.739953995E-1
1.151199862E0,2.296423763E-1,-2.302422523E-1,6.490383148E-1
1.156199862E0,1.693717837E-1,-1.140532494E-1,5.387477875E-1
1.161199862E0,-2.691063285E-2,2.752542496E-2,4.756793976E-1
1.166199862E0,-1.913604736E-1,9.857940674E-2,3.043212891E-1
1.171199862E0,-2.574678659E-1,1.809549332E-2,1.847381592E-1
1.176199862E0,-2.663612366E-1,-1.118230820E-1,-3.844356537E-2
1.181199862E0,1.975778937E-1,-2.634801865E-1,-5.632019043E-2
1.186199862E0,6.597481370E-1,-3.892779350E-1,-4.231834412E-2
1.191199862E0,8.156400323E-1,-4.507913589E-1,-1.432399750E-1
1.196199862E0,6.065958142E-1,-5.707683563E-1,-3.188714981E-1
1.201199862E0,5.105258822E-1,-7.039871216E-1,-3.808259964E-1
1.206199862E0,4.587119222E-1,-5.604496002E-1,-3.162679672E-1
1.211199862E0,3.060019612E-1,-2.892341614E-1,-8.506965637E-2
1.216199862E0,1.711532623E-1,-1.360392570E-1,3.525447845E-2
1.221199862E0,2.037120759E-1,-7.487392426E-2,8.271789551E-2
1.226199862E0,2.917773426E-1,-7.853937149E-2,1.277370453E-1
1.231199862E0,4.249605536E-1,-1.352205276E-1,2.085742950E-1
1.236199862E0,6.143783927E-1,-1.807985306E-1,2.613153458E-1
1.241199862E0,8.686872125E-1,-2.945747375E-1,2.539196014E-1
1.246199862E0,1.036675572E0,-3.622989655E-1,1.328773499E-1
1.251199862E0,1.140691280E0,-4.050664902E-1,6.467437744E-2
1.256199862E0,1.231478333E0,-4.318518639E-1,9.902000427E-3
1.261199862E0,1.218488216E0,-3.349890709E-1,-9.147071838E-2
1.266199862E0,1.069969773E0,-1.577467918E-1,-1.569051743E-1
1.271199862E0,8.839681745E-1,-2.416133881E-3,-1.221008301E-1
1.276199862E0,7.554840446E-1,5.363893509E-2,-1.295080185E-1
1.281199862E0,6.289988160E-1,1.056180000E-1,-1.547279358E-1
1.286199862E0,5.702448487E-1,1.349287033E-1,-9.439086914E-2
1.291199862E0,5.657367110E-1,1.082463264E-1,4.892635345E-2
1.296199862E0,5.490232706E-1,7.742261887E-2,1.682939529E-1
1.301199862E0,4.721591473E-1,1.044402122E-1,2.810649872E-1
1.306199862E0,3.247992098E-1,1.643939018E-1,4.238691330E-1
1.311199862E0,1.044265032E-1,2.096228600E-1,5.102825165E-1
1.316199862E0,1.975663453E-1,8.667182922E-2,5.594692230E-1
1.321199862E0,8.070893586E-2,5.604600906E-2,4.174671173E-1
1.326199862E0,9.017615765E-2,-3.069829941E-2,3.626146317E-1
1.331199862E0,7.403505594E-2,-9.780454636E-2,2.219438553E-1
1.336199862E0,6.734085083E-2,-1.044716835E-1,1.026058197E-2
1.341199862E0,2.844359726E-2,-9.339714050E-2,-1.368379593E-1
1.346199862E0,-6.378351897E-2,-5.831718445E-2,-2.137155533E-1
1.351199862E0,-1.962738484E-1,6.972312927E-3,-2.371044159E-1
1.356199862E0,-2.764480412E-1,9.898138046E-2,-2.317171097E-1
1.361199862E0,-2.959353328E-1,1.466360092E-1,-1.595754623E-1
1.366199862E0,-2.904346585E-1,1.154117584E-1,-9.755897522E-2
1.371199862E0,-3.186736107E-1,1.174292564E-1,-7.028484344E-2
1.376199862E0,-3.731007874E-1,1.263833046E-1,-9.573078156E-2
1.381199862E0,-5.139098763E-1,1.590566635E-1,-1.468801498E-1
1.386199862E0,-6.236404777E-1,1.705374718E-1,-2.033300400E-1
1.391199862E0,-7.287552953E-1,1.955757141E-1,-2.286739349E-1
1.396199862E0,-7.611926198E-1,2.187733650E-1,-2.267131805E-1
1.401199862E0,-7.547972798E-1,1.755003929E-1,-2.270202637E-1
1.406199862E0,-7.171536088E-1,1.318402290E-1,-2.203779221E-1
1.411199862E0,-6.695948839E-1,8.845376968E-2,-2.380580902E-1
1.416199862E0,-5.827924609E-1,1.897621155E-2,-1.999750137E-1
1.421199862E0,-4.910281897E-1,-6.223011017E-2,-1.390600204E-1
1.426199862E0,-3.869901896E-1,-1.190919876E-1,-7.972335815E-2
1.431199862E0,-3.478711843E-1,-1.437458992E-1,-3.312683105E-2
1.436199862E0,-3.170825243E-1,-1.452364922E-1,2.279472351E-2
1.441199862E0,-3.411657214E-1,-1.172394753E-1,4.539203644E-2
1.446199862E0,-3.643430471E-1,-8.841276169E-2,6.395816803E-2
1.451199862E0,-3.843807578E-1,-7.033729553E-2,1.362819672E-1
1.456199862E0,-3.756536245E-1,-5.355501175E-2,2.386999130E-1
1.461199862E0,-2.969898283E-1,-5.109691620E-2,3.181533813E-1
1.466199862E0,-2.238491774E-1,-6.568527222E-2,3.550748825E-1
1.471199862E0,-1.371337175E-1,-6.762123108E-2,3.657627106E-1
1.476199862E0,-4.525540769E-2,-7.023859024E-2,3.990221024E-1
1.481199862E0,8.558094501E-2,-7.017278671E-2,3.870449066E-1
1.486199862E0,9.321610630E-2,-7.925987244E-3,3.700113297E-1
1.491199862E0,3.496138752E-2,2.424049377E-2,2.806816101E-1
1.496199862E0,2.499917150E-2,4.265356064E-2,2.651948929E-1
1.501199862E0,8.602811396E-2,8.468484879E-2,2.896461487E-1
1.506199862E0,1.393030435E-1,1.292786598E-1,2.471628189E-1
1.511199862E0,1.519917697E-1,1.545710564E-1,1.974725723E-1
1.516199862E0,1.687766314E-1,1.650881767E-1,1.574544907E-1
1.521199862E0,1.636371762E-1,1.511573792E-1,1.064500809E-1
1.526199862E0,1.484736949E-1,1.540236473E-1,9.253501892E-3
1.531199862E0,1.492955983E-1,1.663804054E-1,-9.364795685E-2
1.536199862E0,1.752241105E-1,1.872529984E-1,-1.924743652E-1
1.541199862E0,1.908655912E-1,1.969861984E-1,-2.944154739E-1
1.546199862E0,2.120261639E-1,2.034459114E-1,-3.933162689E-1
1.551199862E0,2.405487001E-1,1.952352524E-1,-4.698219299E-1
1.556199862E0,2.184306532E-1,1.895937920E-1,-4.984893799E-1
1.561199862E0,1.830139458E-1,1.836333275E-1,-5.023450851E-1
1.566199862E0,2.038302124E-1,1.681885719E-1,-5.159749985E-1
1.571199862E0,2.287336588E-1,1.417274475E-1,-5.403847694E-1
1.576199862E0,2.656458616E-1,1.041040421E-1,-5.459985733E-1
1.581199862E0,2.716215253E-1,-3.254270554E-2,-1.489667892E-1
1.586199862E0,2.832540870E-1,-5.545043945E-2,-2.840013504E-1
1.591199862E0,2.718884051E-1,5.433750153E-2,-4.050884247E-1
1.793207103E0,0.000000000E0,0.000000000E0,0.000000000E0
1.798207103E0,2.194166183E-2,1.207637787E-2,9.823560715E-2
1.803207103E0,6.924104691E-2,-7.084369659E-3,1.185669899E-1
1.808207103E0,3.228616714E-2,3.476238251E-2,7.682323456E-3
1.813207103E0,-1.555738449E-1,8.990192413E-2,-2.152729034E-1
1.818207103E0,-4.363365173E-1,1.353454590E-1,-5.080552101E-1
1.823207103E0,-3.860943317E-1,-5.701780319E-2,-5.012397766E-1
1.828207103E0,-3.070740700E-1,-1.843094826E-1,-5.098199844E-1
1.833207103E0,-3.263368607E-1,-2.884640694E-1,-6.185207367E-1
1.838207103E0,-3.500981331E-1,-3.548913002E-1,-7.271628380E-1
1.843207103E0,-3.810579777E-1,-4.157419205E-1,-7.620954514E-1
1.848207103E0,-4.090874195E-1,-4.228820801E-1,-8.123078346E-1
1.853207103E0,-4.475014210E-1,-3.824419975E-1,-8.985795975E-1
1.858207103E0,-5.365478992E-1,-2.901382446E-1,-9.639043808E-1
1.863207103E0,-6.089057922E-1,-2.344331741E-1,-9.625835419E-1
1.868207103E0,-6.533480883E-1,-1.941518784E-1,-9.121651649E-1
1.873207103E0,-5.702761412E-1,-2.376623154E-1,-7.643485069E-1
1.878207103E0,-4.639135599E-1,-2.746672630E-1,-5.142121315E-1
1.883207103E0,-3.517198563E-1,-2.769303322E-1,-2.403721809E-1
1.888207103E0,-3.142120838E-1,-2.355232239E-1,8.198738098E-3
1.893207103E0,-2.950187922E-1,-1.793351173E-1,2.175283432E-1
1.898207103E0,-2.805964947E-1,-1.210675240E-1,3.902540207E-1
1.903207103E0,-2.647229433E-1,-9.023237228E-2,5.053963661E-1
1.908207103E0,-2.455360889E-1,-9.258842468E-2,5.854549408E-1
1.913207103E0,-2.033773661E-1,-9.873771667E-2,5.986146927E-1
1.918207103E0,-1.142582893E-1,-1.354761124E-1,6.298117638E-1
1.923207103E0,-5.878436565E-2,-1.240978241E-1,6.545591354E-1
1.928207103E0,-6.942510605E-2,-9.341955185E-2,6.453795433E-1
1.933207103E0,-1.116049290E-1,-8.657646179E-2,6.030263901E-1
1.938207103E0,-1.644407511E-1,-1.008667946E-1,5.692777634E-1
1.943207103E0,-1.860240698E-1,-1.506004333E-1,6.040558815E-1
1.948207103E0,-1.454559565E-1,-1.865997314E-1,6.734895706E-1
1.953207103E0,-1.440215111E-1,-1.923179626E-1,6.362118721E-1
1.958207103E0,-1.832162142E-1,-1.596312523E-1,4.986448288E-1
1.963207103E0,-2.420877218E-1,-1.493101120E-1,3.008255959E-1
1.968207103E0,-2.804269791E-1,-1.370186806E-1,1.474866867E-1
1.973207103E0,-2.798590660E-1,-1.303915977E-1,2.844810486E-2
1.978207103E0,-3.023767471E-1,-1.115636826E-1,-8.681058884E-2
1.983207103E0,-2.973924875E-1,-9.013700485E-2,-2.033252716E-1
1.988207103E0,-2.976285219E-1,-7.871627808E-2,-2.885704041E-1
1.993207103E0,-3.479859829E-1,-5.489730835E-2,-3.573703766E-1
1.998207103E0,-3.885403872E-1,-2.911949158E-2,-4.197850227E-1
2.003207103E0,-3.842791319E-1,-2.945423126E-2,-4.411869049E-1
2.008207103E0,-3.423018456E-1,-3.555393219E-2,-4.187102318E-1
2.013207103E0,-2.775479555E-1,-2.998876572E-2,-3.832030296E-1
2.018207103E0,-2.334016562E-1,-2.764606476E-2,-3.162078857E-1
2.023207103E0,-1.925375462E-1,-3.078460693E-3,-2.165040970E-1
2.028207103E0,-1.430313587E-1,1.728916168E-2,-1.105790138E-1
2.033207103E0,-8.675181866E-2,5.044507980E-2,-2.805233002E-3
2.038207103E0,-5.444777012E-2,7.224416733E-2,6.924962997E-2
2.043207103E0,-1.759147644E-2,6.267070770E-2,1.200747490E-1
2.048207103E0,4.437375069E-2,5.327653885E-2,1.602640152E-1
2.053207103E0,7.858681679E-2,4.254817963E-2,1.988291740E-1
2.058207103E0,7.934200764E-2,3.724908829E-2,2.375965118E-1
2.063207103E0,9.751856327E-2,3.785943985E-2,2.652955055E-1
2.068207103E0,7.763290405E-2,1.953411102E-2,2.935090065E-1
2.073207103E0,5.320680141E-2,4.111242294E-2,3.114404678E-1
2.078207103E0,9.358811378E-2,4.723072052E-2,2.977437973E-1
2.083207103E0,8.864676952E-2,4.498100281E-2,2.884936333E-1
2.088207103E0,1.209472418E-1,8.399724960E-2,2.068200111E-1
2.093207103E0,1.178654432E-1,6.406784058E-2,1.379570961E-1
2.098207103E0,-2.757930756E-2,7.023811340E-2,4.699754715E-2
2.103207103E0,1.407997608E-1,7.934045792E-2,-4.404020309E-2
2.108207103E0,3.281056881E-2,-1.984119415E-2,-1.321697235E-2
2.113207103E0,-1.203905344E-1,-1.578998566E-2,-5.750179291E-2
2.118207103E0,1.900298595E-1,-3.923320770E-2,-5.116558075E-2
2.123207103E0,9.289979935E-4,-1.290936470E-1,3.230047226E-2
2.128207103E0,-1.978745461E-1,-1.060929298E-1,-3.320598602E-2
2.133207103E0,6.590020657E-2,-1.031594276E-1,-2.822208405E-2
2.138207103E0,3.040778637E-2,-1.860136986E-1,4.962301254E-2
2.143207103E0,-2.987600565E-1,-1.488299370E-1,-4.098653793E-2
2.148207103E0,-2.630480528E-1,-1.621685028E-1,-9.730434418E-2
2.153207103E0,-2.450786829E-1,-1.706404686E-1,-1.165785789E-1
2.158207103E0,-2.170563936E-1,-1.299653053E-1,-1.980667114E-1
2.163207103E0,-1.098734140E-1,-8.330440521E-2,-2.413301468E-1
2.168207103E0,2.433109283E-2,-5.198097229E-2,-1.689772606E-1
2.173207103E0,1.109962463E-1,-7.041931152E-3,-1.487922668E-2
2.178207103E0,1.481841803E-1,5.315017700E-2,1.131110191E-1
2.183207103E0,1.705660820E-1,1.184754372E-1,2.477622032E-1
2.188207103E0,1.886614561E-1,1.827392578E-1,3.443474770E-1
2.193207103E0,3.207665682E-1,2.290697098E-1,3.392701149E-1
2.198207103E0,5.157485008E-1,2.445096970E-1,3.648147583E-1
2.203207103E0,4.369187355E-2,2.244377136E-1,2.305488586E-1
2.208207103E0,-1.207252741E-1,1.516194344E-1,1.106233597E-1
2.213207103E0,1.035604477E-1,4.868745804E-2,1.130199432E-1
2.218207103E0,2.701978683E-1,1.775264740E-3,3.160715103E-2
2.223207103E0,-3.251862526E-2,-6.949853897E-2,-6.460762024E-2
2.228207103E0,-7.626426220E-2,-1.679854393E-1,2.633233070E-1
2.233207103E0,6.481552124E-2,-3.032827377E-1,4.082989693E-1
2.238207103E0,5.893838406E-2,-2.650656700E-1,1.433258057E-1
2.243207103E0,9.304201603E-2,-1.750254631E-1,-6.554508209E-2
2.248207103E0,1.433914900E-1,-9.495782852E-2,-2.215571404E-1
2.253207103E0,2.020586729E-1,-2.451419830E-2,-2.417621613E-1
2.258207103E0,2.079054117E-1,6.091976166E-2,-1.623530388E-1
2.263207103E0,1.962213516E-1,1.425027847E-1,-1.007266045E-1
2.268207103E0,8.490419388E-2,1.869564056E-1,-5.444574356E-2
2.273207103E0,-6.187427044E-2,1.997394562E-1,-5.341911316E-2
2.278207103E0,-6.608915329E-2,1.793885231E-1,-7.805919647E-2
2.283207103E0,-4.484200478E-2,1.111488342E-1,-1.777076721E-1
2.288207103E0,1.902139187E-2,2.805328369E-2,-2.685751915E-1
2.293207103E0,1.576929092E-1,-2.062845230E-2,-3.875217438E-1
2.298207103E0,2.502326965E-1,-1.197681427E-1,-2.894029617E-1
2.303207103E0,2.797933817E-1,-1.469159126E-1,-8.936977386E-2
2.308207103E0,3.289204836E-1,-1.306371689E-1,3.891515732E-2
2.313207103E0,3.093423843E-1,-6.708669662E-2,1.015219688E-1
2.318207103E0,3.154488802E-1,2.704095840E-2,9.370136261E-2
2.323207103E0,3.599114418E-1,1.226797104E-1,7.781267166E-2
2.328207103E0,1.927289963E-1,1.595921516E-1,3.815698624E-2
2.333207103E0,1.443032026E-1,1.834316254E-1,-7.937669754E-2
2.338207103E0,2.843762636E-1,2.011280060E-1,-2.657704353E-1
2.343207103E0,1.085588932E-1,9.289073944E-2,-3.911027908E-1
2.348207103E0,6.036639214E-2,3.340673447E-2,-5.285763741E-1
2.353207103E0,2.525790930E-1,-2.806901932E-2,-5.295677185E-1
2.358207103E0,1.232202053E-1,-1.691312790E-1,-4.929752350E-1
2.363207103E0,1.694902182E-1,-1.875190735E-1,-5.572047234E-1
2.368207103E0,2.021696568E-1,-1.568222046E-1,-5.176262856E-1
2.373207103E0,-1.583769917E-1,-9.335041046E-2,-4.635581970E-1
2.378207103E0,-9.190022945E-2,5.832052231E-2,-4.193458557E-1
2.383207103E0,-1.989388466E-1,5.863046646E-2,-2.217130661E-1
2.388207103E0,-4.030095339E-1,6.940221786E-2,-1.425380707E-1
2.393207103E0,-1.438641548E-1,1.043872833E-1,-1.117658615E-1
2.398207103E0,-2.489602566E-1,4.481649399E-2,-5.932140350E-2
2.403207103E0,-3.913114667E-1,1.812362671E-2,-3.713846207E-2
2.408207103E0,-1.991301775E-1,-2.779388428E-2,-2.844476700E-2
2.413207103E0,9.043264389E-2,-6.979608536E-2,3.843259811E-2
2.418207103E0,-1.786077023E-1,-1.285920143E-1,1.229867935E-1
2.423207103E0,-2.159428000E-1,-1.414999962E-1,1.394639015E-1
2.428207103E0,4.291796684E-2,-8.616781235E-2,1.697702408E-1
2.433207103E0,5.639195442E-3,-8.110237122E-2,2.562241554E-1
2.438207103E0,-2.964237332E-1,-7.965564728E-3,3.692927361E-1
2.443207103E0,1.896017790E-2,1.048073769E-1,5.562224388E-1
2.448207103E0,-4.910767078E-2,1.301045418E-1,7.373104095E-1
2.453207103E0,-1.751610041E-1,2.103099823E-1,8.041095734E-1
2.458207103E0,3.124477863E-1,2.771897316E-1,8.100113869E-1
2.463207103E0,5.896914005E-2,2.037363052E-1,8.604965210E-1
2.468207103E0,5.027962923E-1,1.945056915E-1,9.065852165E-1
2.473207103E0,5.613911748E-1,1.607780457E-1,9.317173958E-1
2.478207103E0,6.283565164E-1,1.503281593E-1,9.041304588E-1
2.483207103E0,6.970596313E-1,1.373286247E-1,8.110876083E-1
2.488207103E0,7.218675017E-1,1.406817436E-1,6.785907745E-1
2.493207103E0,7.243397832E-1,1.375684738E-1,4.915871620E-1
2.498207103E0,7.064369917E-1,1.133508682E-1,3.269357681E-1
2.503207103E0,6.541675329E-1,1.036086082E-1,1.761803627E-1
2.508207103E0,5.629978180E-1,1.111764908E-1,4.660701752E-2
2.513207103E0,5.028460026E-1,1.004195213E-1,-8.676385880E-2
2.518207103E0,4.233483076E-1,7.098197937E-2,-2.202777863E-1
2.523207103E0,3.269034028E-1,4.962158203E-2,-3.288817406E-1
2.528207103E0,2.330019474E-1,2.098894119E-2,-4.081444740E-1
2.533207103E0,1.045061946E-1,1.725673676E-3,-4.711031914E-1
2.538207103E0,-1.112973690E-2,-2.425718307E-2,-5.135841370E-1
2.543207103E0,-1.251276135E-1,-4.245996475E-2,-5.697121620E-1
2.548207103E0,-2.179931998E-1,-5.853557587E-2,-5.852508545E-1
2.553207103E0,-2.878345847E-1,-8.182573318E-2,-6.186008453E-1
2.558207103E0,-3.522212207E-1,-1.053671837E-1,-6.116762161E-1
2.563207103E0,-4.048891664E-1,-1.090207100E-1,-5.838847160E-1
2.568207103E0,-4.537539780E-1,-1.216711998E-1,-5.465497971E-1
2.573207103E0,-4.653407931E-1,-1.123642921E-1,-4.665627480E-1
2.578207103E0,-4.580526948E-1,-9.844732285E-2,-3.373146057E-1
2.583207103E0,-4.125097096E-1,-1.000900269E-1,-2.221341133E-1
2.588207103E0,-3.556294143E-1,-7.583808899E-2,-1.375885010E-1
2.593207103E0,-2.950363755E-1,-6.398010254E-2,-4.832792282E-2
2.598207103E0,-2.293643355E-1,-4.585599899E-2,5.740451813E-2
2.603207103E0,-1.434973478E-1,-1.662540436E-2,1.659646034E-1
2.608207103E0,-6.107765436E-2,1.785469055E-2,2.361674309E-1
2.613207103E0,3.458619118E-3,2.061033249E-2,2.634162903E-1
2.618207103E0,4.871857166E-2,5.863189697E-3,3.212075233E-1
2.623207103E0,1.082819700E-1,1.468801498E-2,3.675398827E-1
2.628207103E0,1.386473775E-1,2.835178375E-2,4.004211426E-1
2.633207103E0,1.732232571E-1,4.025030136E-2,4.183645248E-1
2.638207103E0,1.870151162E-1,8.039855957E-2,4.036655426E-1
2.643207103E0,1.974295974E-1,9.109973907E-2,3.392181396E-1
2.648207103E0,2.268513441E-1,9.509563446E-2,2.565155029E-1
2.653207103E0,2.330653071E-1,9.274911880E-2,1.720304489E-1
2.658207103E0,2.318739891E-1,5.855989456E-2,6.515121460E-2
2.663207103E0,2.290483713E-1,3.551769257E-2,-2.955913544E-2
2.668207103E0,2.120237947E-1,1.259040833E-2,-1.017894745E-1
2.673207103E0,1.784787774E-1,-3.218412399E-2,-1.385374069E-1
2.678207103E0,1.465200186E-1,-3.845262527E-2,-1.640281677E-1
2.683207103E0,8.187651634E-2,-4.981231689E-2,-1.736936569E-1
2.688207103E0,4.267811775E-2,-1.877737045E-2,-1.494855881E-1
2.693207103E0,1.299816370E-2,-2.411365509E-3,-1.356711388E-1
2.698207103E0,1.162487268E-2,2.259683609E-2,-1.440229416E-1
2.703207103E0,2.921748161E-2,4.693317413E-2,-1.727743149E-1
2.708207103E0,5.846261978E-2,6.324577332E-2,-1.954650879E-1
2.713207103E0,1.110177636E-1,5.580186844E-2,-2.414789200E-1
2.718207103E0,1.448671222E-1,5.027103424E-2,-2.887296677E-1
2.723207103E0,1.616902351E-1,6.532526016E-2,-3.516526222E-1
2.728207103E0,1.778861880E-1,7.237434387E-2,-4.033856392E-1
2.733207103E0,1.551957726E-1,6.989049911E-2,-4.684062004E-1
2.738207103E0,1.110563874E-1,8.018112183E-2,-5.231456757E-1
2.743207103E0,4.489225149E-2,9.210538864E-2,-5.269088745E-1
2.748207103E0,8.076965809E-3,9.892320633E-2,-4.988622665E-1
2.753207103E0,1.221334934E-2,9.606599808E-2,-5.256395340E-1
2.758207103E0,7.157349586E-2,9.505319595E-2,-6.270647049E-1
2.763207103E0,8.962213993E-2,8.533954620E-2,-6.906332970E-1
2.768207103E0,1.151837707E-1,9.263134003E-2,-7.388377190E-1
2.773207103E0,1.175658703E-1,9.445953369E-2,-7.683782578E-1
2.778207103E0,1.343947649E-1,8.431148529E-2,-7.879056931E-1
2.783207103E0,1.261677146E-1,7.824182510E-2,-7.583370209E-1
2.788207103E0,1.147388816E-1,8.223533630E-2,-7.153997421E-1
2.793207103E0,9.375452995E-2,6.829118729E-2,-6.582374573E-1
2.798207103E0,3.607207537E-2,3.852939606E-2,-5.893173218E-1
2.803207103E0,-5.573034286E-2,1.139736176E-2,-4.551553726E-1
2.808207103E0,-1.328777075E-1,-1.774740219E-2,-2.876567841E-1
2.813207103E0,-1.848923564E-1,-5.494832993E-2,-1.291723251E-1
2.818207103E0,-2.246567011E-1,-8.718442917E-2,1.656055450E-2
2.823207103E0,-2.641823888E-1,-9.971523285E-2,1.679782867E-1
2.828207103E0,-2.891765237E-1,-9.302425385E-2,3.492832184E-1
2.833207103E0,-2.989312410E-1,-1.037836075E-1,5.415229797E-1
2.838207103E0,-3.150836825E-1,-1.294984818E-1,7.396974564E-1
2.843207103E0,-3.226985335E-1,-1.331210136E-1,9.271621704E-1
2.848207103E0,-3.895631433E-1,-1.183009148E-1,1.099407196E0
2.853207103E0,-4.181561470E-1,-8.259439468E-2,1.215453148E0
2.858207103E0,-4.317846000E-1,-1.145830154E-1,1.335450172E0
2.863207103E0,-3.941498399E-1,-1.619477272E-1,1.409253120E0
2.868207103E0,-3.939165175E-1,-1.891770363E-1,1.443809509E0
2.873207103E0,-3.742095530E-1,-2.154431343E-1,1.431225777E0
2.878207103E0,-3.710153103E-1,-2.426810265E-1,1.361255646E0
2.883207103E0,-3.851434588E-1,-2.563261986E-1,1.276301384E0
2.888207103E0,-4.495515227E-1,-2.786889076E-1,1.202514648E0
2.893207103E0,-5.196247101E-1,-2.796502113E-1,1.135269165E0
2.898207103E0,-6.205701828E-1,-2.989983559E-1,1.093666077E0
2.903207103E0,-6.569640040E-1,-3.255305290E-1,1.004884720E0
2.908207103E0,-6.887390614E-1,-3.314166069E-1,8.660078049E-1
2.913207103E0,-7.031813860E-1,-3.197059631E-1,6.857213974E-1
2.918207103E0,-6.978033781E-1,-3.129372597E-1,4.922647476E-1
2.923207103E0,-6.818197966E-1,-3.174071312E-1,3.071632385E-1
2.928207103E0,-6.767994165E-1,-3.261327744E-1,1.426544189E-1
2.933207103E0,-6.932491064E-1,-3.106479645E-1,1.742076874E-2
2.938207103E0,-6.475380659E-1,-3.105831146E-1,-7.990264893E-2
2.943207103E0,-6.459172964E-1,-3.015403748E-1,-1.505680084E-1
2.948207103E0,-6.459174752E-1,-3.059234619E-1,-2.140798569E-1
2.953207103E0,-5.763078928E-1,-2.622833252E-1,-2.507677078E-1
2.958207103E0,-5.443692803E-1,-2.587761879E-1,-3.127288818E-1
2.963207103E0,-6.656330824E-1,-2.840700150E-1,-3.329620361E-1
2.968207103E0,-5.617033243E-1,-1.725974083E-1,-3.010959625E-1
2.973207103E0,4.609188437E-2,7.710790634E-2,-2.625780106E-1
2.978207103E0,6.456267834E-1,2.758202553E-1,-2.769165039E-1
2.983207103E0,9.322500229E-1,3.416142464E-1,-3.154916763E-1
2.988207103E0,8.833882809E-1,3.098254204E-1,-2.934017181E-1
2.993207103E0,6.435004473E-1,2.652277946E-1,-2.408218384E-1
2.998207103E0,4.216800034E-1,2.298007011E-1,-1.708106995E-1
3.003207103E0,3.678879738E-1,2.254176140E-1,-7.945251465E-2
3.008207103E0,4.623022974E-1,2.455153465E-1,9.421348572E-3
3.013207103E0,5.819585323E-1,2.700366974E-1,8.974742889E-2
3.018207103E0,6.795300245E-1,2.745013237E-1,1.435956955E-1
3.023207103E0,6.662060022E-1,2.588605881E-1,1.865997314E-1
3.028207103E0,5.937668085E-1,2.324557304E-1,2.395553589E-1
3.033207103E0,5.343155861E-1,1.685390472E-1,2.676458359E-1
3.038207103E0,4.668342471E-1,1.082367897E-1,2.681856155E-1
3.043207103E0,4.142350256E-1,5.985212326E-2,2.196540833E-1
3.048207103E0,3.441661894E-1,2.584695816E-2,1.831655502E-1
3.053207103E0,2.915447354E-1,-2.550601959E-3,1.046800613E-1
3.058207103E0,2.287189960E-1,-3.003883362E-2,4.737472534E-2
3.063207103E0,1.593432128E-1,-6.757068634E-2,1.302528381E-2
3.068207103E0,1.097742021E-1,-1.130738258E-1,8.559226990E-3
3.073207103E0,6.519502401E-2,-1.265974045E-1,3.733634949E-2
3.078207103E0,5.600106716E-2,-1.402263641E-1,7.926845551E-2
3.083207103E0,1.065698266E-2,-1.478133202E-1,1.328973770E-1
3.088207103E0,-1.879221201E-2,-1.402664185E-1,1.815042496E-1
3.093207103E0,-8.170959353E-2,-1.405534744E-1,2.201356888E-1
3.098207103E0,-1.177864671E-1,-1.326680183E-1,2.681016922E-1
3.103207103E0,-1.375547945E-1,-1.340370178E-1,3.261537552E-1
3.108207103E0,-1.282400191E-1,-1.319799423E-1,3.817529678E-1
3.113207103E0,-7.346656919E-2,-1.374797821E-1,4.221439362E-1
3.118207103E0,-6.645900011E-2,-1.278624535E-1,4.294729233E-1
3.123207103E0,-7.600928843E-2,-1.069183350E-1,4.013376236E-1
3.128207103E0,-1.096168160E-1,-8.409166336E-2,3.471860886E-1
3.133207103E0,-1.242772639E-1,-3.552341461E-2,3.102560043E-1
3.138207103E0,-1.450097710E-1,1.449584961E-2,2.386941910E-1
3.143207103E0,-1.866506189E-1,2.791738510E-2,1.412649155E-1
3.148207103E0,-2.260851413E-1,2.589893341E-2,4.186058044E-2
3.153207103E0,-2.609562278E-1,1.980733871E-2,-6.972980499E-2
3.158207103E0,-2.723141015E-1,1.461029053E-2,-1.783895493E-1
3.163207103E0,-2.728066146E-1,3.844881058E-2,-2.665796280E-1
3.168207103E0,-2.632316947E-1,4.422807693E-2,-3.780956268E-1
3.173207103E0,-2.710918784E-1,5.887222290E-2,-4.786062241E-1
3.178207103E0,-2.612508535E-1,9.558677673E-2,-5.392365456E-1
3.183207103E0,-2.400193810E-1,1.157293320E-1,-5.559654236E-1
3.188207103E0,-1.961711049E-1,1.354398727E-1,-5.718879700E-1
3.193207103E0,-1.368904114E-1,1.278614998E-1,-5.699291229E-1
3.198207103E0,-8.838379383E-2,1.168479919E-1,-5.593514442E-1
3.203207103E0,-6.875163317E-2,1.140313148E-1,-5.564465523E-1
3.208207103E0,-3.955268860E-2,1.244649887E-1,-5.048403740E-1
3.213207103E0,-3.188756108E-2,1.500329971E-1,-4.747767448E-1
3.218207103E0,-3.132110834E-2,1.468181610E-1,-4.686088562E-1
3.223207103E0,-4.145365953E-2,1.329665184E-1,-4.656229019E-1
3.228207103E0,-3.670126200E-2,1.159877777E-1,-4.278993607E-1
3.233207103E0,-3.283888102E-3,1.081137657E-1,-4.161820412E-1
3.238207103E0,3.701785207E-2,8.442735672E-2,-4.001893997E-1
3.243207103E0,7.519552112E-2,8.228874207E-2,-3.710050583E-1
3.248207103E0,1.260553896E-1,9.372520447E-2,-2.966642380E-1
3.253207103E0,1.746584177E-1,9.812259674E-2,-2.089176178E-1
3.258207103E0,2.053123415E-1,7.968950272E-2,-1.400718689E-1
3.263207103E0,2.244618535E-1,2.742624283E-2,-1.149182320E-1
3.268207103E0,2.336976528E-1,3.947734833E-3,-8.753013611E-2
3.273207103E0,2.356430590E-1,-7.004737854E-4,-6.459331512E-2
3.278207103E0,2.316396832E-1,-7.067680359E-3,-7.994842529E-2
3.283207103E0,2.055778205E-1,-2.105617523E-2,-7.091617584E-2
3.288207103E0,1.639314890E-1,-4.223394394E-2,-9.440231323E-2
3.293207103E0,1.388556957E-1,-6.470298767E-2,-9.120845795E-2
3.298207103E0,1.173491180E-1,-6.448125839E-2,-8.960723877E-2
3.303207103E0,7.922980189E-2,-4.297399521E-2,-1.063728333E-1
3.308207103E0,4.310718179E-2,-2.446794510E-2,-1.096429825E-1
3.313207103E0,-6.376564503E-3,-1.060771942E-2,-9.093189240E-2
3.318207103E0,-3.395098448E-2,-1.675081253E-2,-8.482074738E-2
3.323207103E0,-7.398831844E-2,-2.438640594E-2,-8.738803864E-2
3.328207103E0,-7.276022434E-2,-5.092000961E-2,-1.039733887E-1
3.333207103E0,-4.610490799E-2,-6.980323792E-2,-1.112079620E-1
3.338207103E0,-3.337773681E-2,-7.114315033E-2,-1.358489990E-1
3.343207103E0,-3.636845946E-2,-6.047725677E-2,-1.332750320E-1
3.348207103E0,-6.311456859E-2,-2.111196518E-2,-1.037502289E-1
3.353207103E0,-9.608407319E-2,6.375312805E-3,-7.917881012E-2
3.358207103E0,-2.037510574E-1,-2.566432953E-2,-9.590244293E-2
3.363207103E0,-2.618134320E-1,-5.846261978E-2,-1.375226974E-1
3.368207103E0,-2.647945285E-2,-1.231956482E-2,-1.044063568E-1
3.373207103E0,1.733524501E-1,4.694461823E-3,-4.287624359E-2
3.378207103E0,2.818248868E-1,6.692409515E-3,-6.027221680E-4
3.383207103E0,2.999506593E-1,8.854866028E-3,1.333713531E-2
3.388207103E0,2.685844898E-1,1.959800720E-3,3.918266296E-2
3.393207103E0,1.979897618E-1,5.527973175E-3,3.130722046E-2
3.398207103E0,1.175091863E-1,1.540613174E-2,2.669620514E-2
3.403207103E0,4.276740551E-2,1.934051514E-2,3.943252563E-2
3.408207103E0,2.476230264E-2,3.906011581E-2,2.874851227E-2
3.413207103E0,1.654744148E-2,6.704473495E-2,1.605224609E-2
3.418207103E0,3.673031926E-2,5.642843246E-2,1.685333252E-2
3.423207103E0,3.423142433E-2,4.447793961E-2,-1.172351837E-2
3.428207103E0,1.593640447E-2,2.097129822E-2,-6.566810608E-2
3.433207103E0,2.189955115E-2,-1.688003540E-3,-9.045028687E-2
3.438207103E0,3.356337547E-2,-3.814458847E-2,-9.152507782E-2
3.443207103E0,6.069323421E-2,-3.207302094E-2,-9.930706024E-2
3.448207103E0,6.700223684E-2,-5.002403259E-2,-8.094978333E-2
3.453207103E0,5.337744951E-2,-4.591655731E-2,-6.746959686E-2
3.458207103E0,4.078537226E-2,-3.062057495E-2,-5.061912537E-2
3.463207103E0,-4.941731691E-3,1.962900162E-2,-2.006530762E-3
3.468207103E0,-4.607790709E-2,8.056592941E-2,9.981727600E-2
3.473207103E0,-2.266210914E-1,2.914905548E-2,1.684846878E-1
3.478207103E0,-3.423531651E-1,-1.124238968E-2,1.988763809E-1
3.483207103E0,-7.952904701E-2,6.163024902E-2,2.634363174E-1
3.488207103E0,5.578014255E-2,8.690261841E-2,2.817096710E-1
3.493207103E0,7.526278496E-2,8.096218109E-2,3.182258606E-1
3.498207103E0,1.765005291E-1,5.333375931E-2,3.791017532E-1
3.503207103E0,1.707964242E-1,-8.745193481E-4,3.863306046E-1
3.508207103E0,1.668351889E-1,-9.140968323E-4,3.811273575E-1
3.513207103E0,1.488451958E-1,-1.813888550E-3,3.586263657E-1
3.518207103E0,8.420407772E-2,5.635261536E-3,2.756290436E-1
3.523207103E0,1.303799450E-1,7.893800735E-2,2.021636963E-1
3.528207103E0,7.488480210E-2,8.648633957E-2,1.219635010E-1
3.533207103E0,5.792257190E-2,1.031360626E-1,4.901981354E-2
3.538207103E0,1.929287910E-1,1.600613594E-1,7.019042969E-3
3.543207103E0,2.494404018E-1,1.504087448E-1,-5.824661255E-2
3.548207103E0,1.739634275E-1,1.040153503E-1,-1.476459503E-1
3.553207103E0,5.312895775E-2,6.394672394E-2,-2.550325394E-1
3.558207103E0,-8.443343639E-2,4.430723190E-2,-3.175802231E-1
3.563207103E0,-3.386679292E-1,-6.315374374E-2,-4.022994041E-1
3.568207103E0,-1.579402387E-1,-6.847381592E-4,-3.696012497E-1
3.573207103E0,5.908638239E-2,5.013275146E-2,-3.932404518E-1
3.578207103E0,1.474111676E-1,5.927658081E-2,-4.088010788E-1
3.583207103E0,1.833855510E-1,8.429813385E-2,-3.692183495E-1
3.588207103E0,1.075579524E-1,9.408378601E-2,-2.673010826E-1
3.593207103E0,1.198491454E-2,9.794664383E-2,-1.602993011E-1
3.598207103E0,-1.047472358E-1,1.090011597E-1,-7.861328125E-2
3.603207103E0,-1.354961991E-1,1.138405800E-1,1.513099670E-2
3.608207103E0,-8.701798320E-2,1.070232391E-1,6.513881683E-2
3.613207103E0,5.939155817E-3,5.933713913E-2,8.628463745E-2
3.618207103E0,1.233331561E-1,4.873752594E-3,1.271162033E-1
3.623207103E0,1.815293431E-1,9.831905365E-3,1.661081314E-1
3.628207103E0,2.245818377E-1,-4.993438721E-3,1.455736160E-1
3.633207103E0,2.439636886E-1,-5.983829498E-3,6.827545166E-2
3.638207103E0,2.077892721E-1,-1.086616516E-2,-2.182579041E-2
3.643207103E0,1.504777670E-1,-2.173566818E-2,-6.790637970E-2
3.648207103E0,1.602526307E-1,-2.994251251E-2,-1.063051224E-1
3.653207103E0,1.395716071E-1,-5.716800690E-2,-1.501684189E-1
3.658207103E0,1.095013618E-1,-1.142158508E-1,-1.786117554E-1
3.663207103E0,1.383358240E-1,-1.180906296E-1,-1.699600220E-1
3.668207103E0,9.033697844E-2,-1.514949799E-1,-1.585855484E-1
3.673207103E0,1.582688093E-2,-1.927161217E-1,-1.457500458E-1
3.678207103E0,1.147567630E-1,-1.182665825E-1,-8.747005463E-2
3.683207103E0,1.499292254E-1,-3.710317612E-2,-6.391716003E-2
3.688207103E0,9.015011787E-2,-2.091598511E-2,-3.665256500E-2
3.693207103E0,-8.641496301E-2,-5.731916428E-2,-4.780769348E-2
3.698207103E0,-2.195276618E-1,-1.332359314E-1,-2.641010284E-2
3.703207103E0,-1.079274416E-1,-7.056570053E-2,7.412242889E-2
3.708207103E0,-2.168768644E-2,2.765083313E-2,1.142616272E-1
3.713207103E0,-9.682822227E-2,7.230615616E-2,2.059650421E-1
3.718207103E0,-3.497748375E-1,4.785060883E-2,2.385292053E-1
3.723207103E0,-4.403294027E-1,-1.582908630E-2,3.166265488E-1
3.728207103E0,-2.583804131E-1,7.413625717E-2,4.251089096E-1
3.733207103E0,-1.189396381E-1,1.166276932E-1,4.349431992E-1
3.738207103E0,-1.723608673E-1,9.224176407E-2,4.358406067E-1
3.743207103E0,-3.566395640E-1,1.949214935E-2,3.790235519E-1
3.748207103E0,-3.177691698E-1,-3.123664856E-2,3.660850525E-1
3.753207103E0,-2.087401748E-1,3.857946396E-2,4.086160660E-1
3.758207103E0,-1.363655925E-1,1.134295464E-1,3.891420364E-1
3.763207103E0,-1.931751668E-1,1.552004814E-1,3.505582809E-1
3.768207103E0,-3.382026255E-1,1.071085930E-1,2.734737396E-1
3.773207103E0,-3.078144193E-1,5.501794815E-2,2.407588959E-1
3.778207103E0,-1.050963700E-1,7.074880600E-2,2.505989075E-1
3.783207103E0,1.932114363E-2,7.212829590E-2,2.054567337E-1
3.788207103E0,8.175969124E-4,2.930355072E-2,1.597871780E-1
3.793207103E0,-7.001501322E-2,8.090972900E-3,1.114006042E-1
3.798207103E0,-8.615329862E-2,-4.964828491E-3,6.106853485E-2
3.803207103E0,-7.942289114E-2,1.086711884E-2,1.803493500E-2
3.808207103E0,-4.555749893E-2,4.201889038E-3,-2.509784698E-2
3.813207103E0,-2.465963364E-3,-1.243638992E-2,-7.882690430E-2
3.818207103E0,4.439342022E-2,-1.452016830E-2,-1.121463776E-1
3.823207103E0,7.665324211E-2,-2.604961395E-3,-1.847362518E-1
3.828207103E0,6.504297256E-2,8.374214172E-3,-2.480134964E-1
3.833207103E0,2.051234245E-3,1.343679428E-2,-3.015975952E-1
3.838207103E0,-4.293400049E-2,3.776645660E-2,-3.487644196E-1
3.843207103E0,-4.275447130E-2,5.493307114E-2,-3.443393707E-1
3.848207103E0,-2.984941006E-2,4.624414444E-2,-3.215174675E-1
3.853207103E0,-1.871025562E-2,2.252721786E-2,-2.899646759E-1
3.858207103E0,-2.757227421E-2,2.041673660E-2,-2.720785141E-1
3.863207103E0,-4.623091221E-2,3.719234467E-2,-2.726449966E-1
3.868207103E0,-3.122997284E-2,7.582855225E-2,-2.782516479E-1
3.873207103E0,7.197856903E-4,9.065818787E-2,-2.788543701E-1
3.878207103E0,2.408587933E-2,8.286142349E-2,-3.079252243E-1
3.883207103E0,5.737590790E-2,5.936479568E-2,-3.122329712E-1
3.888207103E0,1.199070811E-1,4.623126984E-2,-3.368406296E-1
3.893207103E0,1.566354036E-1,7.974147797E-3,-3.926372528E-1
3.898207103E0,1.772680283E-1,-1.192665100E-2,-4.553632736E-1
3.903207103E0,2.004411817E-1,-2.081918716E-2,-4.956254959E-1
3.908207103E0,2.124645710E-1,-2.631950378E-2,-5.568056107E-1
3.913207103E0,2.164720297E-1,-4.261827469E-2,-5.970191956E-1
3.918207103E0,2.530451417E-1,-4.892683029E-2,-6.449537277E-1
3.923207103E0,2.811895013E-1,-4.987239838E-2,-6.943540573E-1
3.928207103E0,2.770094275E-1,-2.575063705E-2,-7.034826279E-1
3.933207103E0,2.053942680E-1,8.056163788E-3,-6.070461273E-1
3.938207103E0,1.399250627E-1,-9.588479996E-2,-5.232219696E-1
3.943207103E0,1.362270713E-1,-1.886963844E-1,-5.064435005E-1
3.948207103E0,1.348809004E-1,-2.548508644E-1,-5.087757111E-1
3.953207103E0,9.236478806E-2,-1.661581993E-1,-4.523115158E-1
3.958207103E0,2.959662676E-2,-9.039402008E-3,-3.055458069E-1
3.963207103E0,1.859569550E-2,1.780076027E-1,-1.252431870E-1
3.968207103E0,8.118629456E-3,2.008523941E-1,2.473640442E-2
3.973207103E0,-2.585959435E-2,9.097242355E-2,1.327676773E-1
3.978207103E0,-4.850637913E-2,-2.498674393E-2,2.669057846E-1
3.983207103E0,-3.227949142E-2,-1.195597649E-1,3.908357620E-1
3.988207103E0,-1.163482666E-4,-2.078638077E-1,4.715013504E-1
3.993207103E0,-5.303263664E-3,-2.439985275E-1,5.359201431E-1
3.998207103E0,4.222607613E-2,-2.015581131E-1,6.373176575E-1
4.003207103E0,4.852312803E-2,-6.514263153E-2,7.173290253E-1
4.008207103E0,3.242456913E-2,5.273056030E-2,7.443523407E-1
4.013207103E0,1.038616896E-2,7.093763351E-2,7.386255264E-1
4.018207103E0,3.307461739E-3,5.525207520E-2,6.821489334E-1
4.023207103E0,-2.758812904E-2,4.600477219E-2,5.785093307E-1
4.028207103E0,-3.537213802E-2,2.542591095E-2,5.776777267E-1
4.033207103E0,-4.276686907E-2,-3.917884827E-2,6.149997711E-1
4.038207103E0,-3.994005919E-2,-1.160464287E-1,6.091604233E-1
4.043207103E0,-4.217696190E-2,-1.528306007E-1,5.400447845E-1
4.048207103E0,-7.855618000E-2,-1.890521049E-1,4.731140137E-1
4.053207103E0,-1.708246469E-1,-2.271838188E-1,4.170150757E-1
4.058207103E0,-3.241453171E-1,-1.649336815E-1,3.037137985E-1
4.063207103E0,-4.048947096E-1,2.408790588E-2,3.237981796E-1
4.068207103E0,-3.568132520E-1,1.508522034E-1,3.073072433E-1
4.073207103E0,-3.165464997E-1,1.713385582E-1,2.470302582E-1
4.078207103E0,-3.005021214E-1,1.479859352E-1,1.405067444E-1
4.083207103E0,-2.623068690E-1,9.568214417E-2,1.870059967E-2
4.088207103E0,-2.216092050E-1,8.122253418E-2,-1.212358475E-1
4.093207103E0,-1.951164305E-1,6.994199753E-2,-2.294607162E-1
4.098207103E0,-1.957565546E-1,8.732128143E-2,-2.571077347E-1
4.103207103E0,-1.567654610E-1,1.481866837E-1,-2.865505219E-1
4.108207103E0,-1.041100025E-1,1.962432861E-1,-3.566474915E-1
4.113207103E0,-5.211800337E-2,1.801753044E-1,-4.704227448E-1
4.118207103E0,2.297830582E-2,1.534800529E-1,-5.839986801E-1
4.123207103E0,8.539348841E-2,1.264128685E-1,-7.140955925E-1
4.128207103E0,1.438778639E-1,7.679033279E-2,-8.546748161E-1
4.133207103E0,1.738760471E-1,2.362728119E-3,-9.839782715E-1
4.138207103E0,1.904667616E-1,-1.128435135E-2,-1.119658470E0
4.143207103E0,2.451843619E-1,-8.485698700E-2,-1.351902962E0
4.148207103E0,3.190514445E-1,-1.526584625E-1,-1.433254242E0
4.153207103E0,3.866270185E-1,-1.561160088E-1,-1.283491611E0
4.158207103E0,3.266874552E-1,-1.364035606E-1,-1.111940384E0
4.163207103E0,2.081363797E-1,-8.016061783E-2,-1.011267185E0
4.168207103E0,1.185021996E-1,-1.078796387E-1,-1.084856987E0
4.173207103E0,1.519517303E-1,-1.641607285E-1,-1.160222054E0
4.178207103E0,2.424055338E-1,-2.383813858E-1,-1.115301132E0
4.183207103E0,2.708477974E-1,-2.737727165E-1,-1.050859928E0
4.188207103E0,2.452418208E-1,-3.201956749E-1,-1.042390823E0
4.193207103E0,1.540147066E-1,-3.664021492E-1,-1.123078823E0
4.198207103E0,3.520232439E-2,-3.389720917E-1,-1.176358223E0
4.203207103E0,-1.537029147E-1,-2.896966934E-1,-1.426121712E0
4.208207103E0,-9.350544214E-2,2.397203445E-2,-1.486686707E0
4.213207103E0,4.631859064E-2,2.853379250E-1,-1.339454651E0
4.218207103E0,-2.217096090E-2,3.473091125E-1,-1.310017586E0
4.223207103E0,-3.997486830E-2,2.968597412E-1,-1.118762970E0
4.228207103E0,-2.643918991E-2,2.191939354E-1,-9.533386230E-1
4.233207103E0,2.959936857E-2,9.836721420E-2,-8.686246872E-1
4.238207103E0,8.240419626E-2,-2.711296082E-2,-9.020128250E-1
4.243207103E0,5.169487000E-2,-4.048371315E-2,-9.444093704E-1
4.248207103E0,6.773173809E-3,1.744961739E-2,-9.935503006E-1
4.253207103E0,-8.363854885E-2,2.437360287E-1,-1.387623310E0
4.258207103E0,-1.135778427E-1,3.003318310E-1,-9.469623566E-1
4.263207103E0,-1.095392108E-1,2.120647430E-1,4.351806641E-2
4.268207103E0,-1.681442559E-1,2.377042770E-1,7.032766342E-1
4.273207103E0,-2.625464201E-1,3.011140823E-1,8.832464218E-1
4.278207103E0,-1.793312728E-1,4.057452679E-1,8.893432617E-1
4.283207103E0,-3.858005106E-1,3.972318172E-1,8.130512238E-1
4.288207103E0,-4.877182245E-1,3.527812958E-1,9.640693665E-1
4.293207103E0,-5.235873461E-1,3.082401752E-1,1.010079384E0
4.298207103E0,-5.375646353E-1,1.974663734E-1,9.195098877E-1
4.303207103E0,-3.456638455E-1,7.312464714E-2,9.934444427E-1
4.308207103E0,-5.712155998E-2,2.019214630E-2,1.071161270E0
4.313207103E0,2.006091028E-1,-4.237127304E-2,9.914712906E-1
4.318207103E0,3.976604342E-1,-1.608617306E-1,9.945611954E-1
4.323207103E0,5.380733013E-1,-2.909810543E-1,9.913721085E-1
4.328207103E0,7.414112687E-1,-4.608154297E-1,8.744678497E-1
4.333207103E0,1.004803896E0,-6.395027637E-1,7.186317444E-1
4.338207103E0,1.251347780E0,-8.178002834E-1,5.842962265E-1
4.343207103E0,1.421707273E0,-9.956991673E-1,3.787183762E-1
4.348207103E0,1.487275600E0,-1.073692083E0,2.580232620E-1
4.353207103E0,1.433819532E0,-9.904689789E-1,5.887889862E-2
4.358207103E0,1.419511914E0,-7.782077789E-1,-1.021099091E-2
4.363207103E0,1.293262601E0,-6.519105434E-1,-1.504344940E-1
4.368207103E0,1.145484209E0,-5.937306881E-1,-2.365617752E-1
4.373207103E0,1.352787733E0,-3.701062202E-1,-2.300901413E-1
4.378207103E0,1.278827786E0,-2.411425114E-1,-1.766996384E-1
4.383207103E0,9.566816688E-1,-8.819270134E-2,4.649448395E-2
4.388207103E0,7.945215702E-1,8.912181854E-2,2.402448654E-1
4.393207103E0,6.372219920E-1,1.782400608E-1,3.031673431E-1
4.398207103E0,2.631446719E-1,1.006865501E-1,2.158346176E-1
4.403207103E0,-1.809112728E-2,2.216553688E-2,2.983331680E-1
4.408207103E0,-3.023776412E-1,-1.471719742E-1,4.468078613E-1
4.413207103E0,-5.153203607E-1,-2.771501541E-1,6.597290039E-1
4.418207103E0,-7.959781289E-1,-3.609867096E-1,8.515825272E-1
4.423207103E0,-1.102621198E0,-4.410552979E-1,1.034570694E0
4.428207103E0,-1.318922281E0,-5.470569134E-1,1.190247536E0
4.433207103E0,-1.552861214E0,-7.392628193E-1,1.250145912E0
4.438207103E0,-1.276154160E0,-7.343293428E-1,1.310312271E0
4.443207103E0,-4.226343930E-1,-4.541640282E-1,1.475092888E0
4.448207103E0,2.193442732E-1,-9.089016914E-2,1.498043060E0
4.453207103E0,2.818821967E-1,2.023432255E-1,1.367982864E0
4.458207103E0,2.308349311E-2,3.467957973E-1,1.246464729E0
4.463207103E0,-2.994394600E-1,4.111552238E-1,1.099590302E0
4.468207103E0,-4.392479956E-1,5.201041698E-1,1.063868523E0
4.473207103E0,-5.318411589E-1,6.061682701E-1,1.123455048E0
4.478207103E0,-5.749283433E-1,6.325743198E-1,9.874706268E-1
4.483207103E0,-5.730018616E-1,7.035443783E-1,8.201284409E-1
4.488207103E0,-5.644184351E-1,7.604293823E-1,6.958961487E-1
4.493207103E0,-6.407693028E-1,6.103646755E-1,4.623708725E-1
4.498207103E0,-3.526603878E-1,4.526236057E-1,3.948364258E-1
4.503207103E0,5.325019360E-3,2.195360661E-1,4.315481186E-1
4.508207103E0,1.262904704E-1,-8.383560181E-2,1.741437912E-1
4.513207103E0,1.818561554E-1,-2.922185659E-1,-6.668949127E-2
4.518207103E0,2.795862854E-1,-4.515360594E-1,-2.915391922E-1
4.523207103E0,3.552325964E-1,-5.631507635E-1,-4.662303925E-1
4.528207103E0,3.537312448E-1,-6.416668892E-1,-5.840435028E-1
4.533207103E0,2.975453734E-1,-6.252024174E-1,-6.488227844E-1
4.538207103E0,2.555308044E-1,-5.035493374E-1,-6.968469620E-1
4.543207103E0,2.231445163E-1,-3.075891733E-1,-7.349433899E-1
4.548207103E0,1.471442878E-1,-8.244645596E-2,-7.007446289E-1
4.553207103E0,-2.014208212E-2,2.453839779E-2,-6.725568771E-1
4.558207103E0,-1.625735611E-1,-3.594517708E-3,-5.629968643E-1
4.563207103E0,-2.039542198E-1,-1.152498722E-1,-3.549976349E-1
4.568207103E0,-1.693673730E-1,-2.673107386E-1,-3.891754150E-2
4.573207103E0,-1.601177603E-1,-2.426952124E-1,3.246536255E-1
4.578207103E0,-2.241321057E-1,-1.847877502E-1,5.987873077E-1
4.583207103E0,-2.359865159E-1,-1.009999514E-1,8.749523163E-1
4.588207103E0,-1.783472300E-1,-1.206649542E-1,1.019702911E0
4.593207103E0,-2.332074642E-1,-1.862965822E-1,1.126972198E0
4.598207103E0,6.735682487E-2,-2.488899231E-2,1.276532173E0
4.603207103E0,-1.722190976E-1,1.216602325E-2,1.242275238E0
4.608207103E0,-2.311888635E-1,4.875552654E-2,1.177452087E0
4.613207103E0,-3.276464343E-1,2.940475941E-2,1.126017570E0
4.618207103E0,-3.720951080E-1,-5.296647549E-2,9.815845490E-1
4.623207103E0,-3.478967249E-1,-1.154654026E-1,8.134651184E-1
4.628207103E0,-2.451527417E-1,-1.953647733E-1,6.578292847E-1
4.633207103E0,-1.311716437E-1,-2.376061678E-1,4.835977554E-1
4.638207103E0,-6.291330606E-2,-2.273784876E-1,2.994413376E-1
4.643207103E0,-4.230237007E-2,-1.515402794E-1,8.361339569E-2
4.648207103E0,-6.367696822E-2,-9.457927942E-2,-1.313714981E-1
4.653207103E0,-1.221469194E-1,-7.524234056E-2,-3.558721542E-1
4.658207103E0,-1.978623867E-1,-5.182021856E-2,-4.285612106E-1
4.663207103E0,-2.030419558E-1,-2.893507481E-2,-3.821954727E-1
4.668207103E0,-2.045166492E-1,7.006227970E-3,-3.130979538E-1
4.673207103E0,-2.970649004E-1,3.166109324E-2,-3.001613617E-1
4.678207103E0,-3.091702163E-1,6.714287400E-2,-1.970615387E-1
4.683207103E0,-2.759550214E-1,7.568266988E-2,-6.900882721E-2
4.688207103E0,-1.878876090E-1,1.022837460E-1,5.679798126E-2
4.693207103E0,-3.855760396E-2,2.702783942E-1,1.664104462E-1
4.698207103E0,-3.239786625E-1,2.376458943E-1,2.200469971E-1
4.703207103E0,-5.722127557E-1,1.926004887E-1,3.019237518E-1
4.708207103E0,-6.512309909E-1,1.910435706E-1,5.128974915E-1
4.713207103E0,-6.632006168E-1,2.371357381E-1,7.101125717E-1
4.718207103E0,-5.966221094E-1,2.511904538E-1,9.828042984E-1
4.723207103E0,-5.294790864E-1,3.512669206E-1,1.108519554E0
4.728207103E0,-5.161463022E-1,5.225386024E-1,1.235735893E0
4.733207103E0,-5.725085139E-1,7.014640570E-1,1.307991982E0
4.738207103E0,-7.060524225E-1,7.530428767E-1,1.311822891E0
4.743207103E0,-8.475776315E-1,4.591849744E-1,1.480107307E0
4.748207103E0,-5.101934671E-1,2.784612775E-1,1.901089668E0
4.753207103E0,1.537050605E-1,3.400186002E-1,2.122117043E0
4.758207103E0,3.381476998E-1,4.671097398E-1,2.101287842E0
4.763207103E0,-4.059913754E-2,5.424385667E-1,1.928668022E0
4.768207103E0,-6.361008883E-1,4.740142822E-1,1.551025391E0
4.773207103E0,-8.975163698E-1,4.892598391E-1,1.191745758E0
4.778207103E0,-9.262651801E-1,5.090746880E-1,5.783367157E-1
4.783207103E0,-3.475114703E-1,1.157303154E-1,4.285926819E-1
4.788207103E0,1.461607516E-1,-1.080633849E-1,2.964401245E-2
4.793207103E0,4.738614559E-1,-2.480591089E-1,-3.639955521E-1
4.798207103E0,6.133383512E-1,-3.390139937E-1,-6.542091370E-1
4.803207103E0,5.650960207E-1,-5.050037503E-1,-8.836202621E-1
4.808207103E0,8.674337864E-1,-5.996068716E-1,-9.049367905E-1
4.813207103E0,7.629703283E-1,-7.100861073E-1,-1.053003311E0
4.818207103E0,4.394087791E-1,-7.441716194E-1,-1.036734581E0
4.823207103E0,9.825062752E-2,-6.602224708E-1,-9.492425919E-1
4.828207103E0,-6.745643914E-2,-4.761980772E-1,-7.886476517E-1
4.833207103E0,-2.007042617E-1,-3.806302845E-1,-5.991621017E-1
4.838207103E0,-2.132057250E-1,-4.084832966E-1,-2.353057861E-1
4.843207103E0,-1.164546087E-1,-3.421371877E-1,1.395998001E-1
4.848207103E0,-1.113895923E-1,-2.513424456E-1,4.824075699E-1
4.853207103E0,-9.553729743E-2,-2.984453738E-1,8.861265182E-1
4.858207103E0,-1.016703248E-1,-2.933617830E-1,1.208101273E0
4.863207103E0,-5.890263245E-2,-2.773819566E-1,1.424281120E0
4.868207103E0,-4.095449299E-2,-1.665084958E-1,1.383051872E0
4.873207103E0,5.528644845E-2,-1.123090088E-1,1.269932747E0
4.878207103E0,3.934559226E-1,-2.286231220E-1,1.225390434E0
4.883207103E0,7.755882144E-1,-3.145427704E-1,1.162542343E0
4.888207103E0,1.058975458E0,-2.489774227E-1,8.967180252E-1
4.893207103E0,1.122504592E0,-4.315328598E-2,5.268259048E-1
4.898207103E0,9.745734334E-1,8.534466028E-1,3.267621994E-1
4.903207103E0,2.754454613E-1,8.877791166E-1,2.041139603E-1
4.908207103E0,-5.100709200E-1,8.511830568E-1,3.420543671E-2
4.913207103E0,-1.071324110E0,7.717769146E-1,-1.265048981E-1
4.918207103E0,-1.268746257E0,4.394311905E-1,-1.725187302E-1
4.923207103E0,-1.079190493E0,3.219056129E-2,-9.550285339E-2
4.928207103E0,-1.034210682E0,1.101017296E-1,-1.055843353E0
4.933207103E0,-8.371010423E-1,-1.816651821E-1,-8.243694305E-1
4.938207103E0,-3.232840896E-1,-4.152765274E-1,-7.871675491E-1
4.943207103E0,-8.698552847E-2,-4.914142489E-1,-5.139350891E-1
4.948207103E0,-1.642584801E-3,-3.928016424E-1,-6.793775558E-1
4.953207103E0,5.919118226E-2,-5.063591599E-1,-5.585231781E-1
4.958207103E0,-2.658528090E-2,-5.378089547E-1,-2.073860168E-1
4.963207103E0,-4.187367558E-1,-4.113633037E-1,1.583290100E-1
4.968207103E0,-8.059651852E-1,-3.110669851E-1,7.626104355E-1
4.973207103E0,-1.307871580E0,-1.649738550E-1,1.073037148E0
4.978207103E0,-1.138932109E0,8.121478558E-2,1.303233147E0
4.983207103E0,-4.366172552E-1,2.170175612E-1,1.305362701E0
4.988207103E0,9.945949912E-2,3.141803741E-1,1.014506340E0
4.993207103E0,-2.765915394E-1,7.553609610E-1,9.997272491E-2
4.998207103E0,-5.969958305E-1,2.940554917E-1,-6.214485168E-1
5.003207103E0,-1.384476125E-1,2.124104500E-1,-4.894685745E-1
5.008207103E0,-2.759939730E-1,5.226484537E-1,-8.339414597E-1
5.013207103E0,-5.405180454E-1,2.500197887E-1,-7.038946152E-1
5.018207103E0,-5.795481801E-1,1.419763565E-1,-2.819757462E-1
5.023207103E0,-4.114533663E-1,6.958293915E-2,-2.033042908E-2
5.028207103E0,-2.201406956E-1,3.747594357E-2,1.753787994E-1
5.033207103E0,-1.255319118E-1,-1.396906376E-1,3.852777481E-1
5.038207103E0,-5.532729626E-2,-2.946986556E-1,3.577489853E-1
5.043207103E0,3.016817570E-2,-4.058251977E-1,1.424942017E-1
5.048207103E0,1.889561713E-1,-5.357146263E-1,-1.468420029E-1
5.053207103E0,4.742278457E-1,-6.816638708E-1,-4.593563080E-1
5.058207103E0,6.556247473E-1,-7.177270651E-1,-4.998750687E-1
5.063207103E0,6.542032361E-1,-6.607807279E-1,6.197834015E-2
5.068207103E0,5.197858214E-1,-3.716741800E-1,8.035802841E-1
5.073207103E0,4.326691329E-1,1.887595654E-2,1.624293327E0
5.078207103E0,5.584108233E-1,1.299101114E-1,2.172801018E0
5.083207103E0,7.379369736E-1,1.269156337E-1,2.172826767E0
5.088207103E0,7.831075788E-1,1.011358500E-1,1.971716881E0
5.093207103E0,6.420984864E-1,-3.928077221E-2,1.263134956E0
5.098207103E0,4.470565319E-1,-1.506758928E-1,6.969013214E-1
5.103207103E0,1.599923372E-1,-7.540249825E-2,3.221368790E-1
5.108207103E0,-8.958774805E-2,9.620070457E-3,1.996784210E-1
5.113207103E0,-2.199031711E-1,3.911173344E-2,4.319534302E-1
5.118207103E0,-3.650677800E-1,-5.987143517E-2,7.846326828E-1
5.123207103E0,-3.476434946E-1,-1.301890612E-1,1.100836754E0
5.128207103E0,-2.028453350E-1,-1.331779957E-1,1.143631935E0
5.133207103E0,9.776508808E-2,-8.785760403E-2,1.116470337E0
5.138207103E0,2.605561018E-1,-6.362497807E-2,8.931322098E-1
5.143207103E0,2.087916732E-1,-1.498143673E-1,5.167388916E-1
5.148207103E0,2.421896458E-1,-2.480123043E-1,2.171421051E-1
5.153207103E0,3.251689076E-1,-3.405085802E-1,8.745765686E-2
5.158207103E0,2.698819339E-1,-4.523223639E-1,-3.934001923E-2
5.163207103E0,4.194415808E-1,-5.278778076E-1,-1.287059784E-1
5.168207103E0,4.978550076E-1,-5.453665257E-1,-1.540966034E-1
5.173207103E0,8.165281415E-1,-3.132060766E-1,-3.242254257E-1
5.178207103E0,7.853389382E-1,-2.196602821E-1,-6.686925888E-1
5.183207103E0,5.550405979E-1,-2.481895685E-1,-6.863946915E-1
5.188207103E0,3.888104558E-1,-2.361197472E-1,-4.706869125E-1
5.193207103E0,9.604412317E-1,5.132329464E-2,-1.957502365E-1
5.198207103E0,9.121665955E-1,3.238190413E-1,-3.076696396E-1
5.203207103E0,3.546546102E-1,8.322974443E-1,-2.733554840E-1
5.208207103E0,-4.600457549E-1,4.304535389E-1,-4.188041687E-1
5.213207103E0,-7.549201250E-1,1.063796282E-1,4.985313416E-1
5.218207103E0,-8.693761230E-1,6.503319740E-2,9.900836945E-1
5.223207103E0,-9.693642259E-1,1.419882774E-1,8.880414963E-1
5.228207103E0,-9.664341211E-1,1.571338177E-1,7.623157501E-1
5.233207103E0,-1.037301779E0,1.307855844E-1,5.692329407E-1
5.238207103E0,-1.062655687E0,-2.470207214E-2,3.030681610E-1
5.243207103E0,-9.290173054E-1,-2.990779877E-1,3.908958435E-1
5.248207103E0,-7.586616874E-1,-3.731602430E-1,3.825979233E-1
5.253207103E0,-4.837743044E-1,-3.076921701E-1,1.898794174E-1
5.258207103E0,-2.176841497E-1,-2.203286886E-1,-8.110046387E-2
5.263207103E0,-4.053992033E-2,-2.376549244E-1,-2.555389404E-1
5.268207103E0,8.636230230E-2,-2.048078775E-1,-3.123559952E-1
5.273207103E0,1.343131065E-2,-1.546161175E-1,-6.387014389E-1
5.278207103E0,2.183024585E-1,-2.879766226E-1,-1.629991531E0
5.283207103E0,6.716380715E-1,-7.870161533E-2,-1.646148682E0
5.288207103E0,5.864565372E-1,-2.334439754E-1,-5.364418030E-1
5.293207103E0,1.190372705E-1,-9.979772568E-2,7.216596603E-1
5.298207103E0,-2.177504301E-1,6.989991665E-2,8.848724365E-1
5.303207103E0,-4.880089760E-1,1.711800694E-1,4.874000549E-1
5.308207103E0,-6.171886325E-1,2.058112621E-2,-2.102022171E-1
5.313207103E0,-2.822895050E-1,-4.941356182E-1,-1.289873123E0
5.318207103E0,6.300562620E-2,2.540034056E-1,-1.001811981E0
5.323207103E0,-3.081911802E-2,-1.135569811E-1,7.560381889E0
5.328207103E0,-1.036522985E-1,3.378143311E-1,-4.993530273E0
5.333207103E0,6.657193303E-1,-7.385218143E-1,2.957971573E0
5.338207103E0,6.098120809E-1,-4.954841137E-1,-2.095694542E0
5.343207103E0,4.295270741E-1,-2.452167273E-1,1.336524010E0
5.348207103E0,1.398208141E-1,1.378072500E-1,1.326631546E0
5.353207103E0,2.560085058E-2,2.911396027E-1,5.653924942E-1
5.358207103E0,8.465975523E-2,3.069813848E-1,-1.178312302E-1
5.363207103E0,2.981489897E-1,1.932766438E-1,1.933288574E-2
5.368207103E0,2.745368183E-1,-6.699466705E-2,3.103599548E-1
5.373207103E0,-9.249573946E-2,-2.413723469E-1,1.659030914E-1
5.378207103E0,-1.007259786E-1,1.179945469E-2,1.142692566E-2
5.383207103E0,-1.839449704E-1,3.560495377E-2,1.845216751E-1
5.388207103E0,-1.945657730E-1,-9.039568901E-2,1.764869690E-1
5.393207103E0,-5.732119083E-2,9.860992432E-2,8.087825775E-2
5.398207103E0,-1.540764272E-1,-8.572208881E-2,2.426958084E-1
5.403207103E0,1.008197963E-1,2.806971073E-1,7.786655426E-2
5.408207103E0,2.732955813E-1,8.041647673E-1,-1.917133331E-1
5.413207103E0,1.407197118E-1,1.180260777E0,-3.965749741E-1
5.418207103E0,3.255098462E-1,3.918714523E-1,-2.295198441E-1
5.423207103E0,2.436078489E-1,-2.843642235E-1,2.995395660E-2
5.428207103E0,1.844344735E-1,-2.860185504E-1,5.248126984E-1
5.433207103E0,4.706437886E-1,-2.428326607E-1,8.145351410E-1
5.438207103E0,7.538965940E-1,-1.709536314E-1,7.506380081E-1
5.443207103E0,5.915091038E-1,4.649972916E-2,3.933286667E-1
5.448207103E0,3.640474975E-1,1.205409765E-1,-9.255313873E-2
5.453207103E0,5.149513483E-3,2.391312122E-1,-2.374572754E-1
5.458207103E0,-1.602154970E-1,9.323066473E-2,-4.417514801E-2
5.463207103E0,-1.371310949E-1,-1.148819923E-2,-9.477043152E-2
5.468207103E0,-1.212320030E-1,-1.435653567E-1,1.237316132E-1
5.473207103E0,3.191161156E-2,-8.062881231E-2,2.505664825E-1
5.478207103E0,2.162755132E-1,-2.180796862E-2,6.323080063E-1
5.483207103E0,5.273225904E-1,-6.837135553E-2,5.826396942E-1
5.488207103E0,6.495991945E-1,-1.090072989E-1,3.146638870E-1
5.493207103E0,3.785751760E-1,-4.281389713E-2,2.538547516E-1
5.498207103E0,-8.761435747E-3,-2.128978968E-1,3.908967972E-1
5.503207103E0,-1.583496630E-1,-2.016482353E-1,-7.675933838E-2
5.508207103E0,-4.072350264E-1,-1.937739849E-1,1.304054260E-2
5.513207103E0,-7.125825882E-1,-1.404363513E-1,9.861755371E-2
5.518207103E0,-7.869030833E-1,-1.708330512E-1,1.704902649E-1
5.523207103E0,-7.044180632E-1,-2.645907402E-1,1.399383545E-1
5.528207103E0,-5.960792303E-1,-3.829563856E-1,2.412290573E-1
5.533207103E0,-4.537578225E-1,-5.159988403E-1,2.052516937E-1
5.538207103E0,-2.405230701E-1,-6.836965084E-1,2.757434845E-1
5.543207103E0,1.903975606E-1,-5.189074874E-1,2.251529694E-1
5.548207103E0,1.736467630E-1,-4.133164883E-3,2.310085297E-1
5.553207103E0,8.335006237E-2,-2.980422974E-2,1.600522995E-1
5.558207103E0,-2.026674151E-2,-1.091638803E-1,8.135318756E-2
5.563207103E0,-9.334878623E-2,-7.853382826E-2,1.103553772E-1
5.568207103E0,-2.791644633E-1,-2.241711020E-1,-1.412677765E-2
5.573207103E0,1.003364474E-1,8.535796404E-2,2.289028168E-1
5.578207103E0,-9.304974973E-2,-2.673459053E-2,6.418418884E-2
5.583207103E0,-2.934120595E-1,-5.965036154E-2,1.512031555E-1
5.588207103E0,-2.837187648E-1,-7.822167873E-2,1.870708466E-1
5.593207103E0,-1.856795698E-1,1.169639826E-2,2.821407318E-1
5.598207103E0,-4.936571419E-2,2.818381786E-2,2.079095840E-1
5.603207103E0,1.158637926E-1,-8.743065596E-2,1.043453217E-1
5.608207103E0,1.593051255E-1,-8.741188049E-2,1.038694382E-1
5.613207103E0,9.015136957E-2,-8.760917187E-2,1.288032532E-1
5.618207103E0,-1.156737953E-1,-1.083965302E-1,1.293544769E-1
5.623207103E0,-2.233974636E-1,-9.957450628E-2,1.988906860E-1
5.628207103E0,-2.738336325E-1,3.676044941E-2,1.558551788E-1
5.633207103E0,-5.194856524E-1,2.288140655E-1,7.699489594E-2
5.638207103E0,-9.947446585E-1,3.462296724E-2,1.086673737E-1
5.643207103E0,-2.145149559E-2,-1.707737446E-1,1.112003326E-1
5.648207103E0,-4.553653598E-1,-2.787154913E-2,1.247005463E-1
5.653207103E0,-2.953104079E-1,7.760977745E-2,-2.564897537E-1
5.658207103E0,-2.091034353E-1,3.312938809E-1,-4.148588181E-1
5.663207103E0,6.032803655E-2,1.920729876E-1,-7.919597626E-2
5.668207103E0,4.242503047E-1,-1.126354337E-1,2.033948898E-1
5.673207103E0,7.789968848E-1,-1.856569052E-1,3.873567581E-1
5.678207103E0,1.938235521E0,8.721214533E-2,2.708492279E-1
5.683207103E0,8.430188894E-1,2.420040965E-1,2.496566772E-1
5.688207103E0,4.506412745E-1,3.710498214E-1,1.112957001E-1
5.693207103E0,5.597895384E-1,3.139377534E-1,2.187728882E-3
5.698207103E0,6.289306283E-1,2.075591087E-1,4.468917847E-2
5.703207103E0,5.247554779E-1,1.541401744E-1,1.127281189E-1
5.708207103E0,4.785798788E-1,-9.364956617E-2,1.864061356E-1
5.713207103E0,4.973847866E-1,-1.725294590E-1,1.812553406E-1
5.718207103E0,4.396478534E-1,-1.664665341E-1,2.215013504E-1
5.723207103E0,3.486478031E-1,-1.395073533E-1,3.691329956E-1
5.728207103E0,2.071292549E-1,-1.170265675E-2,3.119544983E-1
5.733207103E0,1.804363728E-2,2.867019176E-2,3.325929642E-1
5.738207103E0,-3.013087809E-1,-1.402305961E-1,7.166194916E-1
5.743207103E0,-7.000411153E-1,6.792443991E-2,1.996135712E-1
5.748207103E0,-9.879945517E-1,9.445738792E-2,1.429080963E-1
5.753207103E0,-1.168995261E0,-1.376236677E-1,1.172571182E-1
5.758207103E0,-1.065410137E0,-4.215272069E-1,1.488380432E-1
5.763207103E0,-6.906837225E-1,-7.971971035E-1,1.757860184E-1
5.768207103E0,1.151652411E-1,-7.272605300E-1,2.427864075E-1
5.773207103E0,1.830158085E-1,1.030636430E-1,3.614645004E-1
5.778207103E0,-4.198793322E-2,-1.550512910E-1,-1.063547134E-1
5.783207103E0,1.636404991E-1,2.154380083E-2,1.775808334E-1
5.788207103E0,-6.540934741E-2,-6.246083975E-2,2.254447937E-1
5.793207103E0,-9.641016275E-2,1.623284817E-2,1.126451492E-1
5.798207103E0,-1.088297516E-1,-5.375343561E-2,1.088514328E-1
5.803207103E0,-9.695471078E-2,1.424902678E-2,1.255693436E-1
5.808207103E0,-9.385428578E-2,-5.029070377E-2,1.267337799E-1
5.813207103E0,-2.104761451E-2,-2.032041550E-2,1.262922287E-1
5.818207103E0,-1.514485478E-2,-9.196454287E-2,7.763385773E-2
5.823207103E0,2.923452109E-2,-1.060236096E-1,1.808338165E-1
5.828207103E0,6.662576646E-2,-3.487723470E-1,1.863756180E-1
5.833207103E0,7.163999230E-2,-4.378374219E-1,9.593200684E-2
5.838207103E0,-5.692416430E-2,-2.753822207E-1,1.306285858E-1
5.843207103E0,-2.667786777E-1,-3.846430779E-2,1.087436676E-1
5.848207103E0,-3.566398323E-1,1.877299547E-1,9.261226654E-2
5.853207103E0,-2.827623487E-1,1.977382302E-1,3.117752075E-2
5.858207103E0,-3.214508295E-1,1.424946785E-1,1.548767090E-3
5.863207103E0,-3.473817706E-1,-5.378913879E-2,1.159982681E-1
5.868207103E0,-4.334390163E-2,2.505783439E-1,6.482696533E-1
5.873207103E0,6.581399441E-1,2.345862389E-1,2.986717224E-2
5.878207103E0,6.870452166E-1,1.408680677E-1,-3.564815521E-1
5.883207103E0,6.002292782E-2,-9.489625692E-2,3.104782104E-2
5.888207103E0,-1.028676927E-1,5.141939521E-1,-6.049041748E-1
5.893207103E0,-7.636024952E-1,9.129372239E-1,-1.004974365E0
5.898207103E0,-5.912093520E-1,7.400673628E-1,-6.960287094E-1
5.903207103E0,-1.556201577E-1,2.997074425E-1,-7.811832428E-2
5.908207103E0,6.876933575E-1,-1.267102361E-1,5.017566681E-1
5.913207103E0,1.174869776E0,-2.025333047E-1,3.216218948E-1
5.918207103E0,8.969314098E-1,-1.182191968E-1,1.426582336E-1
5.923207103E0,7.659375072E-1,-6.605842710E-2,2.831544876E-1
5.928207103E0,7.349727154E-1,2.429643422E-1,2.383546829E-1
5.933207103E0,6.408727765E-1,6.171833873E-1,-4.970464706E-1
5.938207103E0,5.658742785E-1,3.614761531E-1,-5.691022873E-1
5.943207103E0,6.320738792E-1,6.606094539E-2,-6.579561234E-1
5.948207103E0,8.216353655E-1,-1.964616179E-1,-2.743015289E-1
5.953207103E0,3.878372908E-1,-1.585749030E0,7.478788376E0
5.958207103E0,-1.708542228E0,-1.658751965E0,1.176868153E1
5.963207103E0,-1.391134024E0,3.264057636E0,-1.236903954E1
5.968207103E0,-1.544812202E0,-2.089144289E-1,1.140141869E1
5.973207103E0,-1.897070885E0,1.074186563E0,-3.731944084E0
5.978207103E0,-2.173995733E0,-4.357706308E-1,4.699440956E0
5.983207103E0,-1.646461964E0,1.227357626E0,-8.780550003E0
5.988207103E0,-4.885912240E-1,-1.053073168E0,-7.236776352E-1
5.993207103E0,7.022056580E-1,-1.357398272E0,-5.614861965E0
5.998207103E0,1.678877950E0,-2.183468342E0,-1.808922291E0
6.003207103E0,1.417769074E0,-1.020905614E0,-2.971138954E0
6.008207103E0,5.251069665E-1,2.196635455E-1,-4.544286728E-1
6.013207103E0,8.273822069E-2,7.037326694E-3,-3.422393799E-1
6.018207103E0,-3.015339375E-1,-1.053229496E-1,9.069271088E-1
6.023207103E0,5.654689670E-2,-2.731481194E-1,1.098385811E0
6.028207103E0,1.562611461E-1,-3.402361870E-1,1.107300758E0
6.033207103E0,3.711432219E-2,-3.519793749E-1,1.650588989E0
6.038207103E0,-3.420901299E-2,-2.811316848E-1,9.959974289E-1
6.043207103E0,-5.609041452E-2,-1.584148854E-1,7.156600952E-1
6.048207103E0,-7.331705093E-2,-4.857699573E-2,3.220748901E-1
6.053207103E0,-1.377853751E-2,3.366008401E-3,-9.924888611E-2
6.058207103E0,4.517999291E-2,1.117961109E-2,-3.233566284E-1
6.063207103E0,6.280305982E-2,2.090357244E-2,-2.578201294E-1
6.068207103E0,4.888972640E-2,1.470188797E-2,-1.735849380E-1
6.073207103E0,3.159078956E-2,-2.088413388E-2,-1.057519913E-1
6.078207103E0,-8.091297746E-2,-1.306401938E-2,1.156845093E-1
6.083207103E0,-1.639277339E-1,1.722273976E-2,2.060718536E-1
6.088207103E0,-2.190543115E-1,-9.280383587E-3,1.938829422E-1
6.093207103E0,-9.276148677E-2,-8.388142288E-2,2.849073410E-1
6.098207103E0,5.703791976E-2,-1.064850241E-1,3.567037582E-1
6.103207103E0,1.146409214E-1,-1.066812575E-1,3.023099899E-1
6.108207103E0,7.091298699E-2,-9.316344559E-2,1.527204514E-1
6.113207103E0,1.154524088E-2,-5.476252735E-2,1.491889954E-1
6.118207103E0,-5.235105753E-3,-2.339061350E-2,6.382751465E-2
6.123207103E0,1.602020860E-2,-2.238655090E-2,5.776405334E-2
6.128207103E0,3.009027243E-2,-1.995205134E-2,4.949188232E-2
6.133207103E0,5.802074075E-2,-4.919970781E-2,8.454227448E-2
6.138207103E0,4.399222136E-2,-7.787152380E-2,2.246618271E-1
6.143207103E0,5.109736323E-2,-9.120525420E-2,2.248191833E-1
6.148207103E0,4.588514566E-3,-7.959874719E-2,2.114105225E-1
6.153207103E0,-2.542659640E-2,-6.826689839E-2,2.822856903E-1
6.158207103E0,-4.086562991E-2,-7.035589963E-2,3.140277863E-1
6.163207103E0,-9.380584955E-2,-8.963587880E-2,3.588695526E-1
6.168207103E0,-1.647578478E-1,-9.346257895E-2,5.273790359E-1
6.173207103E0,-6.471562386E-2,-1.202185526E-1,4.801702499E-1
6.178207103E0,6.265926361E-2,-1.457386315E-1,4.175434113E-1
6.183207103E0,1.325182319E-1,-1.480124593E-1,3.556013107E-1
6.188207103E0,1.565394253E-1,-1.464004815E-1,3.434991837E-1
6.193207103E0,1.403682232E-1,-1.294246614E-1,3.166732788E-1
6.198207103E0,4.544824362E-2,-1.059828550E-1,2.595930099E-1
6.203207103E0,-6.260296702E-2,-5.790987983E-2,2.486095428E-1
6.208207103E0,-1.144098639E-1,-2.431492507E-2,1.014347076E-1
6.213207103E0,-2.106045783E-1,8.388534188E-3,4.925251007E-2
6.218207103E0,-3.204922080E-1,5.292022228E-2,-3.872108459E-2
6.223207103E0,-3.615003228E-1,7.822906971E-2,-7.885646820E-2
6.228207103E0,-6.613874435E-2,-1.841245592E-2,1.113271713E-1
6.233207103E0,-1.860193610E-1,-5.250483751E-3,9.820747375E-2
6.238207103E0,-1.446620822E-1,-1.516763121E-2,1.074199677E-1
6.243207103E0,-5.439916253E-2,-2.259565517E-2,3.647518158E-2
6.248207103E0,2.355688959E-1,-2.913622260E-1,1.377228737E0
6.253207103E0,3.228297085E-2,-8.301080465E-1,2.457321167E0
6.258207103E0,1.789882898E0,-5.630997419E-1,-4.870763779E0
6.263207103E0,1.281434655E0,1.558837146E-1,-2.787477493E0
6.268207103E0,-3.913984895E-1,6.146660447E-1,1.715764046E0
6.273207103E0,-9.251598716E-1,4.278906584E-1,1.301573753E0
6.278207103E0,-1.370306849E0,7.133401930E-2,1.122093201E0
6.283207103E0,-9.893491268E-1,-1.869663298E-1,1.946930885E0
6.288207103E0,-3.080478907E-1,-9.489493072E-2,7.901544571E-1
6.293207103E0,9.574444294E-1,1.320356727E-1,-2.946045876E0
6.298207103E0,4.503499269E-1,2.468718886E-1,-2.439980507E0
6.303207103E0,-2.421785742E-1,-7.415097952E-2,1.579702377E0
6.308207103E0,-4.878845811E-1,-1.977603137E-2,1.394701004E0
6.313207103E0,-8.115502000E-1,1.620997488E-1,2.178564072E-1
6.318207103E0,-6.006262302E-1,1.008250564E-2,6.548070908E-1
6.323207103E0,-1.917083412E-1,-1.371325850E-1,1.643533707E0
6.328207103E0,5.009740591E-1,-1.200765669E-1,-6.208791733E-1
6.333207103E0,7.994617820E-1,2.687133104E-2,-2.428401947E0
6.338207103E0,4.129011333E-1,-1.009107828E-1,-4.809970856E-1
6.343207103E0,-2.296065539E-1,-4.790674150E-2,1.202899933E0
6.348207103E0,-6.270838380E-1,1.656520367E-2,8.712301254E-1
6.353207103E0,-5.312991142E-1,-6.108537316E-3,7.738132477E-1
6.358207103E0,-3.320868611E-1,-3.181175888E-2,8.310995102E-1
6.363207103E0,2.892569080E-2,-2.055740356E-2,3.019762039E-1
6.368207103E0,6.240953207E-1,-7.938598096E-2,-1.341348648E0
6.373207103E0,5.285686255E-1,-8.459725231E-2,-1.069826126E0
6.378207103E0,1.070202887E-2,-5.123885721E-2,5.477905273E-1
6.383207103E0,-3.027694523E-1,-3.740564734E-2,6.013755798E-1
6.388207103E0,-4.639215469E-1,3.390959650E-2,5.377826691E-1
6.393207103E0,-3.262328207E-1,-4.131390527E-2,7.602910995E-1
6.398207103E0,-1.892742217E-1,-4.373949766E-2,7.394714355E-1
6.403207103E0,2.298786044E-1,-4.471360520E-2,-4.315204620E-1
6.408207103E0,4.581281841E-1,-4.233329743E-2,-1.081754684E0
6.413207103E0,2.257032394E-1,-6.049734727E-2,-2.340612411E-1
6.418207103E0,-1.045742333E-1,-6.931624562E-2,6.634492874E-1
6.423207103E0,-2.797412276E-1,-6.892055273E-3,3.874616623E-1
6.428207103E0,-3.586992025E-1,2.840149403E-2,4.502086639E-1
6.433207103E0,-2.408706546E-1,-5.091203377E-2,6.807193756E-1
6.438207103E0,6.324879825E-2,-8.041486144E-2,2.245063782E-1
6.443207103E0,2.669147849E-1,-2.852387354E-2,-6.333255768E-1
6.448207103E0,2.508085370E-1,-3.659880534E-2,-5.311908722E-1
6.453207103E0,2.096781880E-2,-6.819465756E-2,2.708873749E-1
6.458207103E0,-2.392694801E-1,-3.139201924E-2,6.023502350E-1
6.463207103E0,-3.022667170E-1,-1.554965973E-3,4.298620224E-1
6.468207103E0,-1.822605431E-1,-1.095455140E-2,4.229736328E-1
6.473207103E0,8.994256705E-2,-7.126310468E-2,1.317977905E-2
6.478207103E0,2.273240089E-1,-5.256873369E-2,-3.698921204E-1
6.483207103E0,1.269092113E-1,-3.944678605E-2,-2.405567169E-1
6.488207103E0,-8.735032380E-2,-3.153775260E-2,2.866916656E-1
6.493207103E0,-2.274551690E-1,-1.901776344E-2,5.536642075E-1
6.498207103E0,-1.951993555E-1,-2.316856384E-2,4.130744934E-1
6.503207103E0,-2.470828593E-3,-3.776548430E-2,6.499862671E-2
6.508207103E0,1.446436793E-1,-5.390315503E-2,-1.880044937E-1
6.513207103E0,1.125286296E-1,-5.564937741E-2,-1.203908920E-1
6.518207103E0,-3.747969866E-2,-4.031012580E-2,1.801128387E-1
6.523207103E0,-1.844419390E-1,-1.658976823E-2,3.955945969E-1
6.528207103E0,-1.558017582E-1,-2.645840496E-2,3.681688309E-1
6.533207103E0,-1.163098589E-2,-4.621563107E-2,1.353940964E-1
6.538207103E0,8.682575822E-2,-4.818317294E-2,-9.475231171E-2
6.543207103E0,8.288428187E-2,-4.590014741E-2,-8.849143982E-2
6.548207103E0,-3.205960244E-2,-4.097089171E-2,1.622076035E-1
6.553207103E0,-1.346465051E-1,-3.877404332E-2,3.376331329E-1
6.558207103E0,-1.305507869E-1,-2.719596028E-2,3.028211594E-1
6.563207103E0,-1.017999649E-2,-3.513757139E-2,1.028594971E-1
6.568207103E0,6.649869680E-2,-5.383370444E-2,-3.292846680E-2
6.573207103E0,5.407045409E-2,-5.550268292E-2,-1.173019409E-3
6.578207103E0,-4.189889133E-2,-3.401418030E-2,1.372117996E-1
6.583207103E0,-1.028013900E-1,-1.938293129E-2,2.707672119E-1
6.588207103E0,-8.145058900E-2,-3.223927319E-2,2.602062225E-1
6.593207103E0,-1.068459079E-2,-4.966942593E-2,1.214275360E-1
6.598207103E0,4.068660736E-2,-4.451503605E-2,6.877899170E-3
6.603207103E0,2.363359928E-2,-3.978912532E-2,5.484962463E-2
6.608207103E0,-3.574522957E-2,-3.292505816E-2,1.907396317E-1
6.613207103E0,-8.939105272E-2,-4.183850065E-2,2.525548935E-1
6.618207103E0,-6.453210115E-2,-3.190759569E-2,2.099943161E-1
6.623207103E0,-8.744761348E-3,-3.320594504E-2,8.773708344E-2
6.628207103E0,2.773011476E-2,-4.039805755E-2,2.158260345E-2
6.633207103E0,-1.956705004E-3,-3.311691433E-2,7.908630371E-2
6.638207103E0,-4.671818763E-2,-2.932966501E-2,1.835050583E-1
6.643207103E0,-5.966823548E-2,-2.540968731E-2,2.281208038E-1
6.648207103E0,-5.715396255E-2,-4.705671594E-2,1.888456345E-1
6.653207103E0,-5.026534200E-3,-4.020128027E-2,9.332847595E-2
6.658207103E0,1.696072891E-2,-3.248038888E-2,4.235267639E-2
6.663207103E0,-3.351714462E-3,-3.348158672E-2,1.093845367E-1
6.668207103E0,-4.961887375E-2,-4.297282547E-2,1.594419479E-1
6.673207103E0,-7.390518486E-2,-3.275291994E-2,1.892738342E-1
6.678207103E0,-3.206814826E-2,-2.802425995E-2,1.512422562E-1
6.683207103E0,-1.136325300E-3,-4.433904588E-2,8.211326599E-2
6.688207103E0,-5.078732967E-3,-3.224790841E-2,6.669139862E-2
6.693207103E0,-2.123652771E-2,-2.895499021E-2,1.134443283E-1
6.698207103E0,-3.231171146E-2,-2.730616927E-2,1.553039551E-1
6.703207103E0,-4.259921238E-2,-3.346417844E-2,1.713705063E-1
6.708207103E0,-2.539993264E-2,-3.489426523E-2,1.302452087E-1
6.713207103E0,-4.442099482E-3,-2.128951997E-2,1.032962799E-1
6.718207103E0,5.955100060E-4,-3.153862059E-2,1.002407074E-1
6.723207103E0,-2.751560137E-2,-4.705126956E-2,1.239070892E-1
6.728207103E0,-5.417538434E-2,-4.646570981E-2,1.593236923E-1
6.733207103E0,-3.848980740E-2,-3.183329850E-2,1.383848190E-1
6.738207103E0,-1.718534343E-2,-3.072946519E-2,1.129808426E-1
6.743207103E0,-1.318003424E-2,-4.402735829E-2,1.014633179E-1
6.748207103E0,-1.702952757E-2,-4.274706542E-2,1.161289215E-1
6.753207103E0,-1.607741043E-2,-2.607519552E-2,1.534748077E-1
6.758207103E0,-4.596977308E-2,-2.237870917E-2,1.530380249E-1
6.763207103E0,-3.079239279E-2,-3.954337165E-2,1.555023193E-1
6.768207103E0,-1.216748729E-2,-3.437713161E-2,1.367387772E-1
6.773207103E0,-1.095104963E-2,-2.508759499E-2,1.083507538E-1
6.778207103E0,-1.642412692E-2,-3.557763249E-2,1.108493805E-1
6.783207103E0,-3.988342360E-2,-2.125679702E-2,1.169347763E-1
6.788207103E0,-3.544909507E-2,-3.048899397E-2,1.315984726E-1
6.793207103E0,-1.591854542E-2,-2.075965330E-2,1.292276382E-1
6.798207103E0,-2.088032290E-2,-2.985670045E-2,1.099758148E-1
6.803207103E0,-1.056763902E-2,-3.102983534E-2,1.179437637E-1
6.808207103E0,-1.954813302E-2,-3.052357957E-2,1.157979965E-1
6.813207103E0,-3.207181022E-2,-2.802189440E-2,1.203069687E-1
6.818207103E0,-2.977671847E-2,-3.443174064E-2,1.320104599E-1
6.823207103E0,-2.844912745E-2,-2.488829941E-2,1.136293411E-1
6.828207103E0,-1.330735162E-2,-3.653668240E-2,1.029958725E-1
6.833207103E0,-9.132552892E-3,-3.975337371E-2,1.011457443E-1
6.838207103E0,-2.587422915E-2,-3.127521649E-2,1.170244217E-1
6.843207103E0,-2.080941014E-2,-2.463499084E-2,1.212482452E-1
6.848207103E0,-1.547595859E-2,-2.554911748E-2,1.232519150E-1
6.853207103E0,-2.251173556E-2,-4.127403721E-2,1.170568466E-1
6.858207103E0,-1.933965087E-2,-3.458224237E-2,8.669948578E-2
6.863207103E0,-6.305649877E-3,-2.570622042E-2,9.287929535E-2
6.868207103E0,-1.252573356E-2,-2.654363960E-2,1.118974686E-1
6.873207103E0,-3.153993934E-2,-3.167346120E-2,1.227521896E-1
6.878207103E0,-3.351882473E-2,-1.838903502E-2,1.161623001E-1
6.883207103E0,-1.350384392E-2,-2.345424891E-2,8.762359619E-2
6.888207103E0,-1.166610420E-2,-3.229935095E-2,9.700202942E-2
6.893207103E0,-2.257105336E-2,-3.336955979E-2,9.985065460E-2
6.898207103E0,-2.188762277E-2,-2.493166178E-2,1.044054031E-1
6.903207103E0,-1.327700913E-2,-1.490930468E-2,9.375762939E-2
6.908207103E0,-1.889311336E-2,-2.166635543E-2,1.028757095E-1
6.913207103E0,-2.562203631E-2,-3.162299842E-2,8.626556396E-2
6.918207103E0,-1.532729529E-2,-1.624684036E-2,9.915924072E-2
6.923207103E0,-9.021738544E-3,-2.010067552E-2,9.475231171E-2
6.928207103E0,-2.734707855E-2,-3.121863306E-2,9.494400024E-2
6.933207103E0,-2.174999006E-2,-3.081508912E-2,9.646606445E-2
6.938207103E0,-2.833573520E-2,-1.567976922E-2,9.792900085E-2
6.943207103E0,-9.286362678E-3,-1.870861277E-2,9.298801422E-2
6.948207103E0,-1.985014603E-2,-3.943618014E-2,8.749389648E-2
6.953207103E0,-2.012860775E-2,-1.447303221E-2,1.027021408E-1
6.958207103E0,-1.816648431E-2,-2.252873778E-2,9.820079803E-2
6.963207103E0,-1.461454295E-2,-3.011770360E-2,8.096694946E-2
6.968207103E0,-2.367570251E-2,-2.361371368E-2,8.529186249E-2
6.973207103E0,-2.714141458E-2,-1.698571816E-2,9.202289581E-2
6.978207103E0,-8.534040302E-3,-2.136439085E-2,9.793758392E-2
6.983207103E0,-1.423980482E-2,-2.120225132E-2,1.000652313E-1
6.988207103E0,-2.168658748E-2,-3.022464179E-2,1.063222885E-1
6.993207103E0,-1.312509738E-2,-2.946449816E-2,9.705924988E-2
6.998207103E0,-1.074485481E-2,-2.210008167E-2,7.861995697E-2
7.003207103E0,-1.077167690E-3,-2.062120289E-2,7.326030731E-2
7.008207103E0,-1.687750034E-2,-3.483060747E-2,7.504463196E-2
7.013207103E0,-2.113067172E-2,-1.475235075E-2,8.019924164E-2
7.018207103E0,-1.208529994E-2,-2.815222368E-2,9.901714325E-2
7.023207103E0,-1.458191220E-2,-1.937094703E-2,8.663749695E-2
7.028207103E0,-2.331484109E-2,-1.698224619E-2,9.649085999E-2
7.033207103E0,-1.327577047E-2,-9.211104363E-3,6.430339813E-2
7.038207103E0,-1.630043425E-2,-2.194679901E-2,7.430648804E-2
7.043207103E0,-1.454328932E-2,-2.191067301E-2,8.297729492E-2
7.048207103E0,-2.328884788E-2,-1.366350427E-2,8.001804352E-2
7.053207103E0,-3.105700016E-3,-1.652041450E-2,7.438755035E-2
7.058207103E0,-1.302388590E-2,-2.126911469E-2,7.563591003E-2
7.063207103E0,-2.287214622E-2,-2.549115196E-2,7.407665253E-2
7.068207103E0,-2.428019419E-2,-1.275099441E-2,9.075450897E-2
7.073207103E0,-7.657617331E-3,-1.790579408E-2,7.474136353E-2
7.078207103E0,-1.117022894E-2,-2.487855591E-2,7.364749908E-2
7.083207103E0,-8.394408971E-3,-1.650637016E-2,6.389045715E-2
7.088207103E0,-1.004430279E-2,-1.904243603E-2,6.278705597E-2
7.093207103E0,-8.851930499E-3,-2.049579844E-2,8.646297455E-2
7.098207103E0,-1.863870025E-2,-1.623238623E-2,9.116935730E-2
7.103207103E0,-2.145360224E-2,-2.301734313E-2,6.904220581E-2
7.108207103E0,-1.265012193E-2,-9.050704539E-3,8.283519745E-2
7.113207103E0,-1.194663346E-3,-2.514206432E-2,7.512855530E-2
7.118207103E0,-1.260666177E-2,-2.504777163E-2,7.567214966E-2
7.123207103E0,-2.599445730E-2,-1.300190762E-2,6.367015839E-2
7.128207103E0,-4.619577900E-3,-1.399807632E-2,7.189083099E-2
7.133207103E0,-8.296983317E-3,-2.761184797E-2,6.376075745E-2
7.138207103E0,-8.699631318E-3,-2.220830880E-2,7.349109650E-2
7.143207103E0,-5.579268560E-3,-1.788462885E-2,7.512187958E-2
7.148207103E0,-1.393130608E-2,-8.838724345E-3,8.362960815E-2
7.153207103E0,-2.087857574E-4,-2.219385840E-2,8.330726624E-2
7.158207103E0,-1.985490322E-2,-2.140319347E-2,7.074165344E-2
7.163207103E0,-1.946275681E-2,-1.744253933E-2,6.566810608E-2
7.168207103E0,-1.031500287E-2,-1.983295009E-2,5.592536926E-2
7.173207103E0,-3.565361723E-3,-2.544897795E-2,5.751991272E-2
7.178207103E0,-9.802417830E-3,-1.480095088E-2,6.480216980E-2
7.183207103E0,-6.708471105E-3,-1.005763561E-2,6.777095795E-2
7.188207103E0,-4.751095548E-3,-1.271669194E-2,6.760311127E-2
7.193207103E0,-1.448988914E-3,-8.329495788E-3,6.734275818E-2
7.198207103E0,-1.584160142E-2,-2.088281699E-2,6.700038910E-2
7.203207103E0,-1.063938439E-2,-2.216779627E-2,6.171607971E-2
7.208207103E0,-5.165869370E-3,-1.853166521E-2,5.543518066E-2
7.213207103E0,-1.730534062E-2,-1.529574022E-2,6.746768951E-2
7.218207103E0,-1.863505319E-2,-8.337192237E-3,5.417442322E-2
7.223207103E0,-1.407522708E-3,-1.989359781E-2,5.919837952E-2
7.228207103E0,-6.171897054E-3,-1.848762855E-2,6.536579132E-2
7.233207103E0,-1.876164228E-2,-1.510893740E-2,5.511951447E-2
7.238207103E0,-9.137815796E-3,-6.691653281E-3,4.695892334E-2
7.243207103E0,-1.374466904E-2,-2.139614895E-2,5.361747742E-2
7.248207103E0,-5.414742976E-3,-2.286460437E-2,5.635166168E-2
7.253207103E0,-1.150296442E-2,-1.356251538E-2,4.586696625E-2
7.258207103E0,-1.111167669E-2,-9.364128113E-3,4.392242432E-2
7.263207103E0,6.447471678E-4,-1.381991059E-2,5.495357513E-2
7.268207103E0,-2.191182785E-2,-1.769380644E-2,7.033824921E-2
7.273207103E0,-2.762274817E-3,-1.343944483E-2,6.035900116E-2
7.278207103E0,-1.215629466E-2,-7.791996002E-3,5.168247223E-2
7.283207103E0,-4.772210494E-3,-1.886489615E-2,4.345798492E-2
7.288207103E0,-1.125035249E-2,-1.778692007E-2,6.014823914E-2
7.293207103E0,-7.157042623E-3,-4.267260432E-3,4.866790771E-2
7.298207103E0,2.025999129E-5,-4.721879959E-3,4.808235168E-2
7.303207103E0,-5.686741322E-3,-1.794333570E-2,5.295276642E-2
7.308207103E0,-6.050209515E-3,-1.107408851E-2,5.631923676E-2
7.313207103E0,-1.040999033E-2,-1.238858700E-2,6.247711182E-2
7.318207103E0,-9.437361732E-3,-1.003215462E-2,6.453990936E-2
7.323207103E0,-7.180839777E-3,-1.988982782E-2,2.915763855E-2
7.328207103E0,-1.039275993E-2,-1.862173341E-2,5.528354645E-2
7.333207103E0,-5.010604858E-3,3.666464239E-3,4.757022858E-2
7.338207103E0,-1.019802969E-2,-1.522736438E-2,4.482746124E-2
7.343207103E0,-4.927684553E-3,-1.169652492E-2,4.808902740E-2
7.348207103E0,-8.076769300E-3,-1.238216087E-2,6.888008118E-2
7.353207103E0,4.869643599E-4,-1.657910831E-2,7.431697845E-2
7.358207103E0,-3.859078512E-3,-9.823873639E-3,5.407905579E-2
7.363207103E0,-4.185466096E-3,-1.948017254E-2,3.911209106E-2
7.368207103E0,5.380194634E-4,-8.470285684E-3,5.433368683E-2
7.373207103E0,-2.691693604E-3,-1.280788705E-2,3.700160980E-2
7.378207103E0,-3.786398098E-3,-3.540962934E-3,3.713798523E-2
7.383207103E0,-5.906069651E-3,-5.553696305E-3,4.905128479E-2
7.388207103E0,-2.556927502E-3,-5.827762187E-3,5.982875824E-2
7.393207103E0,-4.890658893E-3,-1.894387789E-2,5.363655090E-2
7.398207103E0,-3.076456487E-3,-7.524296641E-3,6.427574158E-2
7.403207103E0,-1.198982634E-2,-1.008231193E-2,5.226135254E-2
7.408207103E0,-3.059599549E-3,-8.707500994E-3,3.331089020E-2
7.413207103E0,-4.444920458E-3,-1.684520021E-2,4.176998138E-2
7.418207103E0,-1.093060710E-2,-1.026703045E-2,2.237224579E-2
7.423207103E0,-5.289113149E-3,4.445761442E-5,3.414821625E-2
7.428207103E0,-1.078705397E-2,2.121854573E-3,4.858875275E-2
7.433207103E0,-9.544125758E-3,-2.361086383E-2,5.601406097E-2
7.438207103E0,-2.921823412E-3,-9.788496420E-3,6.157112122E-2
7.443207103E0,-6.310550496E-3,-5.814284086E-4,5.040645599E-2
7.448207103E0,3.730379045E-3,-1.235579699E-2,3.038787842E-2
7.453207103E0,-9.072385728E-4,-1.842855476E-2,3.085708618E-2
7.458207103E0,-1.105611213E-2,-2.025688440E-2,4.174327850E-2
7.463207103E0,-1.822307706E-3,-7.901228964E-4,4.328632355E-2
7.468207103E0,-1.115013845E-2,-8.450252935E-3,2.974224091E-2
7.473207103E0,-1.911045983E-3,-1.495907828E-2,5.101299286E-2
7.478207103E0,5.727754906E-3,-1.638064720E-2,4.861259460E-2
7.483207103E0,-8.949166164E-3,-6.558485329E-4,4.790687561E-2
7.488207103E0,-2.004750073E-3,-2.720236778E-3,2.582931519E-2
7.493207103E0,-3.142199479E-3,-1.798704639E-2,4.098415375E-2
7.498207103E0,-3.691858612E-3,-1.425033435E-2,3.322124481E-2
7.503207103E0,7.532272488E-3,-2.823807299E-3,2.152538300E-2
7.508207103E0,-4.137884825E-4,-7.899429649E-3,3.643894196E-2
7.513207103E0,-3.171944991E-3,-1.412172988E-2,5.927276611E-2
7.518207103E0,-3.361979499E-3,-1.105964184E-3,5.795764923E-2
7.523207103E0,1.694452204E-2,-1.755445451E-2,2.497196198E-2
7.528207103E0,8.137222379E-3,-2.203403041E-2,1.395034790E-2
7.533207103E0,-1.494972222E-2,-8.163508028E-3,3.456306458E-2
7.538207103E0,-4.123240709E-3,3.986176103E-3,6.736755371E-3
7.543207103E0,-3.390979022E-3,-1.495679095E-2,2.648353577E-2
7.548207103E0,-3.429315053E-3,-1.240215451E-2,5.731487274E-2
7.553207103E0,-4.762951285E-3,-1.259487309E-2,5.333900452E-2
7.558207103E0,2.793386579E-3,-1.149382442E-3,2.781391144E-2
7.563207103E0,8.098855615E-4,3.623969853E-3,2.276992798E-2
7.568207103E0,-2.579933032E-3,-1.628324948E-2,4.477024078E-2
7.573207103E0,-1.392539777E-2,-7.712852210E-3,3.617668152E-2
7.578207103E0,-2.054776996E-4,2.398118377E-4,1.383781433E-2
7.583207103E0,5.782546476E-3,-7.167205215E-3,2.857971191E-2
7.588207103E0,-7.791163400E-3,-1.458710805E-2,4.225158691E-2
7.593207103E0,-4.312854260E-3,-7.168672979E-3,5.090808868E-2
7.598207103E0,9.889286011E-4,7.122579962E-3,3.258895874E-2
7.603207103E0,-4.426324740E-3,-1.128333248E-2,2.936172485E-2
7.608207103E0,-1.253483910E-2,-2.003388479E-2,2.029132843E-2
7.613207103E0,4.574598745E-3,-3.797851503E-3,1.576614380E-2
7.618207103E0,8.767567575E-3,-4.486825317E-3,1.807022095E-2
7.623207103E0,-4.371665418E-4,-1.077408716E-2,3.956890106E-2
7.628207103E0,-1.940807328E-3,-8.291602135E-3,4.562377930E-2
7.633207103E0,-6.573963910E-3,1.237668097E-3,4.043769836E-2
7.638207103E0,8.322775364E-3,-3.765720874E-3,3.437137604E-2
7.643207103E0,-6.261434406E-3,-5.960937589E-3,3.089523315E-2
7.648207103E0,-7.258729078E-3,-1.626003906E-2,3.239440918E-2
7.653207103E0,1.356489956E-4,2.914156765E-3,2.398014069E-2
7.658207103E0,-6.648658775E-3,5.853414536E-3,3.113937378E-2
7.663207103E0,-8.258304559E-3,-9.427130222E-3,2.196502686E-2
7.668207103E0,-7.655568421E-3,-1.770958304E-3,3.291893005E-2
7.673207103E0,1.614157110E-2,-7.643256336E-3,3.063774109E-2
7.678207103E0,2.599861473E-3,-1.290488057E-2,2.508926392E-2
7.683207103E0,-9.145002812E-3,-4.673169926E-3,1.979255676E-2
7.688207103E0,-1.503048465E-3,-8.134828880E-3,3.083229065E-2
7.693207103E0,7.867611945E-3,-1.267865300E-3,2.657985687E-2
7.698207103E0,-3.017573617E-3,-1.020262949E-2,2.288818359E-2
7.703207103E0,-1.694394276E-3,-4.086907953E-3,2.340984344E-2
7.708207103E0,7.246000692E-3,-1.764759421E-3,3.804016113E-2
7.713207103E0,-1.289997250E-3,-8.161883801E-3,3.423690796E-2
7.718207103E0,-1.776007935E-2,-1.612575725E-2,3.316593170E-2
7.723207103E0,-1.861204021E-2,2.512525767E-3,2.467250824E-2
7.728207103E0,1.412687264E-2,-5.999006331E-3,2.927970886E-2
7.733207103E0,5.018052645E-3,-8.187543601E-3,1.721858978E-2
7.738207103E0,7.072377019E-3,-5.729023367E-3,2.420139313E-2
7.743207103E0,-4.724748433E-3,-2.394814044E-3,2.926731110E-2
7.748207103E0,-2.139760181E-4,-4.286285490E-3,3.760337830E-2
7.753207103E0,-7.823076099E-3,-5.606658757E-3,2.940845490E-2
7.758207103E0,-8.920623921E-3,-4.268068820E-3,2.750396729E-2
7.763207103E0,9.931206703E-3,1.760587096E-3,3.143024445E-2
7.768207103E0,1.619800925E-3,1.203589141E-3,1.479053497E-2
7.773207103E0,-1.001815312E-3,-1.434928924E-2,2.673053741E-2
7.778207103E0,-7.624011487E-4,-1.733638346E-3,2.813243866E-2
7.783207103E0,7.579231635E-3,-1.614302397E-3,3.006935120E-2
7.788207103E0,1.034532674E-2,-5.847051740E-3,4.051876068E-2
7.793207103E0,1.276647672E-4,-7.071346045E-3,2.383327484E-2
7.798207103E0,2.203977667E-3,1.800045371E-3,1.515865326E-2
7.803207103E0,3.189688548E-3,-5.942534655E-3,1.993656158E-2
7.808207103E0,2.857468091E-3,-5.533609539E-3,1.409626007E-2
7.813207103E0,-2.965930849E-3,-3.265554085E-3,2.206134796E-2
7.818207103E0,2.202512696E-3,-2.460185438E-3,1.631736755E-2
7.823207103E0,-5.198440515E-3,-3.620646894E-3,2.475452423E-2
7.828207103E0,-3.289204091E-3,-7.767625153E-3,2.092266083E-2
7.833207103E0,-1.200052351E-2,-1.733171754E-2,3.137588501E-2
7.838207103E0,-7.285185624E-3,-4.038346931E-3,2.378940582E-2
7.843207103E0,9.358283132E-4,-6.404258311E-3,2.315425873E-2
7.848207103E0,6.577261724E-3,-1.384074613E-2,2.347850800E-2
7.853207103E0,-1.110200956E-2,-1.312039793E-3,2.248096466E-2
7.858207103E0,-3.174477257E-3,2.472512424E-3,1.299285889E-2
7.863207103E0,1.198337413E-3,-8.212011307E-3,1.259708405E-2
7.868207103E0,2.274201252E-3,-1.799601316E-2,3.387832642E-2
7.873207103E0,-2.983612940E-4,-7.559068501E-3,1.406478882E-2
7.878207103E0,7.959004492E-3,-3.852177411E-3,4.205703735E-3
7.883207103E0,7.747149095E-3,-3.165002912E-3,2.925205231E-2
7.888207103E0,-3.763159737E-3,-1.331676543E-2,4.039669037E-2
7.893207103E0,5.172268488E-3,6.349194795E-3,2.438926697E-2
7.898207103E0,1.283240505E-3,3.280304372E-3,1.650142670E-2
7.903207103E0,9.874206036E-3,-6.198722869E-3,2.173519135E-2
7.908207103E0,-3.014557995E-3,-6.432998925E-3,3.245830536E-2
7.913207103E0,7.028928958E-3,-9.182564914E-3,2.179622650E-2
7.918207103E0,-2.438174561E-3,-2.932431176E-3,3.188991547E-2
7.923207103E0,-2.386015840E-3,-6.926583126E-3,1.129150391E-2
7.928207103E0,7.844847627E-3,-7.528102025E-3,2.363777161E-2
7.933207103E0,7.464649156E-3,6.170891225E-3,1.091957092E-2
7.938207103E0,6.176605821E-4,-1.231025159E-2,2.665233612E-2
7.943207103E0,-3.436165862E-3,-8.494168520E-3,2.881145477E-2
7.948207103E0,3.296421841E-3,9.780861437E-4,1.737976074E-2
7.953207103E0,7.224787027E-3,2.446100116E-3,1.248550415E-2
7.958207103E0,8.859285153E-3,-1.278670318E-2,9.606361389E-3
7.963207103E0,2.539028414E-3,-6.763488054E-3,1.709175110E-2
7.968207103E0,1.017894596E-3,-6.217271090E-3,2.324676514E-2
7.973207103E0,-1.119111665E-3,5.172688514E-3,2.233505249E-2
7.978207103E0,8.534982800E-3,-6.471801549E-3,1.267433167E-2
7.983207103E0,4.197023809E-4,-2.395000309E-3,1.851654053E-2
7.988207103E0,2.164313570E-3,1.065846533E-3,8.340835571E-3
7.993207103E0,1.012684125E-2,5.039114505E-3,2.106857300E-2
7.998207103E0,1.388440840E-3,-1.122912392E-2,2.797317505E-2
8.003207103E0,-1.318019722E-2,-1.125293598E-2,2.440452576E-2
8.008207103E0,-9.057540447E-4,5.989886820E-3,1.306152344E-2
8.013207103E0,1.512631681E-2,1.007441431E-3,1.629352570E-2
8.018207103E0,-1.492887735E-3,-3.892648965E-3,1.674747467E-2
8.023207103E0,-1.426744275E-3,9.421445429E-4,1.363182068E-2
8.028207103E0,5.790127441E-3,-4.332412034E-3,2.316093445E-2
8.033207103E0,-6.000109483E-3,-4.786863923E-3,2.208423615E-2
8.038207103E0,-4.763633013E-3,-3.424154595E-3,2.027511597E-2
8.043207103E0,4.130203277E-3,3.912746906E-3,1.385498047E-2
8.048207103E0,8.332870901E-3,-1.081089117E-2,2.006530762E-3
8.053207103E0,7.081115618E-4,-2.755742520E-3,1.148700714E-2
8.058207103E0,6.287566386E-3,5.448389798E-3,1.302337646E-2
8.063207103E0,-2.268958837E-3,-1.019440591E-3,1.902580261E-2
8.068207103E0,-3.908162005E-3,-3.363516182E-3,2.948760986E-3
8.073207103E0,-1.999642700E-3,-1.503024250E-3,1.211547852E-2
8.078207103E0,-1.147863455E-2,7.124096155E-4,2.140998840E-2
8.083207103E0,2.112352289E-3,2.946034074E-4,7.872581482E-3
8.088207103E0,5.424534902E-3,1.953352243E-3,1.256847382E-2
8.093207103E0,-4.105095752E-3,1.536186785E-3,8.481025696E-3
8.098207103E0,-3.222638741E-3,2.783477306E-3,1.444435120E-2
8.103207103E0,2.316177823E-3,-6.539525464E-3,1.644992828E-2
8.108207103E0,9.649697691E-3,-4.236536101E-3,2.125644684E-2
8.113207103E0,8.017579094E-4,2.466928214E-3,2.566623688E-2
8.118207103E0,7.473874837E-3,-1.395978034E-4,2.904319763E-2
8.123207103E0,1.100257598E-2,4.477575421E-4,2.286911011E-2
8.128207103E0,4.878789186E-4,2.037644386E-3,1.402854919E-2
8.133207103E0,-1.418221742E-3,-2.202503383E-4,1.409339905E-2
8.138207103E0,7.877620868E-3,-1.515138894E-3,5.414009094E-3
8.143207103E0,1.003530156E-2,-1.064568199E-2,3.396987915E-3
8.148207103E0,1.105210837E-2,5.444101989E-4,1.714324951E-2
8.153207103E0,-9.814301506E-3,3.937434405E-3,1.719760895E-2
8.158207103E0,9.391819127E-3,-9.630756453E-3,4.857063293E-3
8.163207103E0,1.133040246E-2,-7.396100089E-3,1.434898376E-2
8.168207103E0,-6.308159791E-3,1.831240952E-4,6.485939026E-3
8.173207103E0,5.614637397E-3,5.889512599E-3,1.861476898E-2
8.178207103E0,1.507002115E-2,4.209581763E-3,4.915237427E-3
8.183207103E0,-3.670402803E-3,-4.982359707E-3,1.976203918E-2
8.188207103E0,-8.725114167E-3,-5.989041179E-3,2.002525330E-2
8.193207103E0,4.022905603E-3,8.868817240E-3,1.010417938E-2
8.198207103E0,1.985870302E-2,8.445754647E-4,1.808166504E-2
8.203207103E0,-2.724776976E-3,-5.133593455E-3,1.766967773E-2
8.208207103E0,-1.873147674E-3,-1.134535670E-2,2.234935760E-2
8.213207103E0,1.707657240E-3,4.593022168E-3,1.188755035E-2
8.218207103E0,2.313289791E-3,5.825661123E-3,1.769351959E-2
8.223207103E0,-7.327746600E-3,-1.824647188E-5,4.737854004E-3
8.228207103E0,4.452983849E-3,-9.394571185E-3,1.827335358E-2
8.233207103E0,4.315556958E-3,2.805437893E-3,1.886272430E-2
8.238207103E0,2.918017097E-3,-5.611456931E-3,1.628971100E-2
8.243207103E0,1.408831216E-3,-7.940482348E-3,2.212238312E-2
8.248207103E0,1.065565739E-2,-2.329487354E-3,2.073097229E-2
8.253207103E0,1.329511404E-3,9.180556983E-3,-8.468627930E-4
8.258207103E0,1.347157545E-2,2.660712227E-3,1.457405090E-2
8.263207103E0,3.165254369E-3,-4.728306085E-3,9.834289551E-3
8.268207103E0,-1.448405907E-2,4.279032350E-3,1.826477051E-2
8.273207103E0,6.008026190E-3,-3.425421193E-3,2.770233154E-2
8.278207103E0,6.390964612E-3,6.068889052E-4,-2.897262573E-3
8.283207103E0,-5.428886041E-3,-3.145582974E-3,1.944160461E-2
8.288207103E0,5.567710847E-3,5.398504436E-5,7.860183716E-3
8.293207103E0,1.591996476E-2,-1.803301275E-3,5.494117737E-3
8.298207103E0,5.657311529E-3,-2.195196226E-3,1.711559296E-2
8.303207103E0,-1.859527081E-3,9.083785117E-3,1.374053955E-2
8.308207103E0,1.262367237E-2,-4.966165870E-4,2.064514160E-2
8.313207103E0,1.955686323E-2,-6.389122456E-3,-1.649856567E-3
8.318207103E0,-7.681745570E-3,1.313652843E-3,-2.139091492E-3
8.323207103E0,-8.650450036E-4,6.229029968E-3,2.793312073E-3
8.328207103E0,1.334754657E-2,3.891594708E-3,1.595306396E-2
8.333207103E0,-6.527517922E-3,-1.439040340E-2,9.775161743E-3
8.338207103E0,-1.483866014E-3,2.545712516E-3,1.665210724E-2
8.343207103E0,-1.706819981E-3,1.423455216E-2,7.137298584E-3
8.348207103E0,-1.024647616E-3,-1.875085756E-3,1.773262024E-2
8.353207103E0,4.802897573E-3,-1.258900575E-2,1.161003113E-2
8.358207103E0,-3.968879580E-3,-6.442638114E-3,1.424598694E-2
8.363207103E0,7.031651214E-3,1.052230038E-2,4.612922668E-3
8.368207103E0,-4.726927727E-5,-6.718203425E-3,1.106071472E-2
8.373207103E0,-6.183939520E-3,-1.267506182E-2,2.077770233E-2
8.378207103E0,2.709319815E-4,-6.815336645E-3,8.170127869E-3
8.383207103E0,8.749359287E-3,5.432710052E-3,1.137733459E-2
8.388207103E0,1.019693166E-2,-8.539030328E-3,1.238250732E-2
8.393207103E0,5.960190669E-3,-2.438049763E-3,1.111793518E-2
8.398207103E0,-1.893448643E-3,5.845371634E-4,2.023983002E-2
8.403207103E0,4.392216913E-3,2.103472129E-3,2.496719360E-3
8.408207103E0,5.573176779E-3,8.221156895E-5,8.563995361E-3
8.413207103E0,1.550129615E-3,4.198707640E-3,4.981040955E-3
8.418207103E0,2.260955982E-3,5.948705599E-3,6.836891174E-3
8.423207103E0,1.036630757E-2,1.082489640E-2,6.376266479E-3
8.428207103E0,-2.356152982E-3,-1.758515835E-3,8.139610291E-3
8.433207103E0,1.010255888E-3,-3.539679572E-3,8.716583252E-3
8.438207103E0,1.345993578E-2,-6.772130728E-4,8.678436279E-3
8.443207103E0,1.085888967E-2,2.337994054E-3,1.436901093E-2
8.448207103E0,4.762714729E-3,-9.933525696E-3,2.927780151E-4
8.453207103E0,-8.031260222E-3,3.634598106E-4,5.422592163E-3
8.458207103E0,6.632936187E-3,2.336511388E-3,1.076507568E-2
8.463207103E0,5.094392225E-3,-7.430678234E-3,9.369850159E-3
8.468207103E0,5.993144587E-4,-4.758710042E-3,9.553909302E-3
8.473207103E0,-1.719534397E-3,1.395773143E-4,2.198410034E-2
8.478207103E0,8.289531805E-3,-3.020143136E-3,2.057170868E-2
8.483207103E0,2.651107498E-3,-3.586575389E-3,1.512145996E-2
8.488207103E0,3.849764355E-3,-7.324282080E-3,9.181976318E-3
8.493207103E0,4.878259264E-3,-2.086004242E-3,2.366065979E-3
8.498207103E0,1.009934489E-2,-5.790123716E-3,1.184368134E-2
8.503207103E0,-5.282427184E-3,-6.982820109E-3,9.900093079E-3
8.508207103E0,-7.601601072E-3,1.845717430E-3,6.865501404E-3
8.513207103E0,1.843020320E-2,6.825285032E-3,2.796173096E-3
8.518207103E0,1.717879996E-2,6.518336013E-3,9.750366211E-3
8.523207103E0,-4.554561339E-3,-9.942235425E-3,2.425193787E-3
8.528207103E0,-6.636806298E-3,1.870324835E-3,6.570816040E-4
8.533207103E0,6.427165121E-3,5.831187591E-3,1.344203949E-2
8.538207103E0,1.727677882E-2,1.242293045E-3,9.562492371E-3
8.543207103E0,4.788814113E-3,-1.797643863E-2,-6.294250488E-5
8.548207103E0,-1.968223602E-3,1.333304867E-2,6.482124329E-3
8.553207103E0,7.005700842E-3,9.046969935E-3,-4.298210144E-3
8.558207103E0,4.568130709E-3,-9.248008952E-3,2.463626862E-2
8.563207103E0,4.214133136E-3,-1.012977771E-2,2.428436279E-2
8.568207103E0,3.806962632E-3,4.615876824E-3,1.137161255E-2
8.573207103E0,2.898777835E-3,6.230112165E-3,-8.228302002E-3
8.578207103E0,7.664387114E-3,-1.261346787E-2,-2.193450928E-3
8.583207103E0,-5.802026484E-3,1.161653548E-3,3.850936890E-3
8.588207103E0,5.206293426E-3,6.863960996E-3,7.391929626E-3
8.593207103E0,1.055237744E-2,6.634637713E-3,3.385543823E-3
8.598207103E0,7.369051687E-3,4.385866225E-3,1.145553589E-2
8.603207103E0,6.537530571E-4,1.241160557E-3,1.298427582E-2
8.608207103E0,6.138306111E-3,-5.767969415E-3,-4.318237305E-3
8.613207103E0,4.021227360E-4,8.692326024E-3,-6.122589111E-3
8.618207103E0,-5.133000202E-3,-9.076036513E-3,2.219581604E-2
8.623207103E0,-6.722975522E-3,-7.205329835E-3,1.362419128E-2
8.628207103E0,2.734604292E-3,-2.810977399E-3,-1.433372498E-3
8.633207103E0,3.414940089E-3,3.407454118E-3,9.300231934E-3
8.638207103E0,1.682744361E-3,-3.959730268E-3,2.571105957E-3
8.643207103E0,3.864121623E-3,8.529249579E-3,1.812934875E-2
8.648207103E0,7.622198202E-3,4.498887807E-3,-1.450538635E-3
8.653207103E0,5.040131509E-4,-7.383890450E-3,8.671760559E-3
8.658207103E0,-9.643323720E-4,2.760019153E-3,7.064819336E-3
8.663207103E0,5.470504984E-3,7.401511073E-3,1.124000549E-2
8.668207103E0,1.077308692E-2,1.197220758E-3,-3.048896790E-3
8.673207103E0,5.726856180E-3,-6.804497913E-3,-2.241134644E-4
8.678207103E0,-8.349336684E-3,-1.253789291E-3,1.091289520E-2
8.683207103E0,9.195093997E-3,4.527788609E-3,1.698398590E-2
8.688207103E0,4.362893291E-3,-2.896821126E-3,-1.416206360E-3
8.693207103E0,2.513169311E-3,-1.561462879E-3,6.093978882E-3
8.698207103E0,2.774884924E-3,-4.856659099E-3,1.190376282E-2
8.703207103E0,1.232502982E-4,5.197113380E-3,4.149436951E-3
8.708207103E0,4.823966883E-3,2.835962921E-3,9.514808655E-3
8.713207103E0,5.349498242E-3,-5.689851940E-3,1.929759979E-2
8.718207103E0,1.163878851E-2,-4.864066839E-3,1.620101929E-2
8.723207103E0,1.003467198E-2,5.870351568E-3,1.029014587E-3
8.728207103E0,1.022540033E-3,-7.966462523E-3,8.462905884E-3
8.733207103E0,-1.473575830E-3,-6.855664775E-3,2.726364136E-2
8.738207103E0,9.219767526E-4,-1.927167177E-3,7.875442505E-3
8.743207103E0,2.901126631E-3,7.216650993E-3,-1.084995270E-2
8.748207103E0,2.647507936E-4,5.407528952E-3,-1.635837555E-2
8.753207103E0,-1.636120491E-3,1.091664284E-2,-9.100914001E-3
8.758207103E0,1.158261299E-2,6.590031087E-3,6.439208984E-3
8.763207103E0,4.050881602E-3,1.581529155E-3,1.738834381E-2
8.768207103E0,5.063739605E-3,2.879850566E-3,-1.400947571E-3
8.773207103E0,-2.268511802E-3,-1.033464447E-3,7.850646973E-3
8.778207103E0,1.794468984E-2,-7.051572204E-3,-5.760192871E-3
8.783207103E0,-3.428178839E-3,-1.792725176E-3,3.953933716E-3
8.788207103E0,-7.276548073E-3,6.588961929E-3,4.786491394E-3
8.793207103E0,1.531487331E-3,1.755636558E-2,-4.768371582E-6
8.798207103E0,5.051022395E-3,3.161532804E-3,5.811691284E-3
8.803207103E0,-1.544259489E-3,-1.452539489E-2,-7.266044617E-3
8.808207103E0,4.140850157E-3,9.998681024E-3,1.009941101E-2
8.813207103E0,-2.352930605E-4,5.771301687E-3,5.085945129E-3
8.818207103E0,5.508742295E-3,-6.206376478E-3,2.029418945E-3
8.823207103E0,2.493861131E-3,-9.769121185E-3,7.917404175E-3
8.828207103E0,9.128574282E-3,4.686100408E-3,-4.796028137E-3
8.833207103E0,1.566840336E-3,1.878808066E-2,-8.835792542E-3
8.838207103E0,1.415021159E-2,2.046713606E-3,5.971908569E-3
8.843207103E0,-4.938413389E-3,-9.346511215E-3,1.780796051E-2
8.848207103E0,-1.068745740E-3,2.097379416E-3,1.515674591E-2
8.853207103E0,4.872106947E-3,1.343623362E-2,-1.860141754E-2
8.858207103E0,7.490153424E-3,-3.913087770E-3,-5.096435547E-3
8.863207103E0,-6.421874743E-3,-2.198834531E-2,1.788902283E-2
8.868207103E0,7.092487067E-5,4.783602431E-3,1.682758331E-2
8.873207103E0,7.764156908E-4,2.762321383E-3,3.213882446E-4
8.878207103E0,-4.759646021E-3,6.470091641E-3,5.058288574E-3
8.883207103E0,5.836993456E-3,6.749162450E-3,7.630348206E-3
8.888207103E0,3.736527637E-3,-8.929869160E-3,6.340980530E-3
8.893207103E0,-1.677364111E-3,-1.904593781E-3,9.430885315E-3
8.898207103E0,-1.373378560E-3,6.387185305E-3,2.956390381E-4
8.903207103E0,-4.948704038E-3,8.205251768E-3,4.409790039E-3
8.908207103E0,2.206877433E-2,1.791417599E-4,1.027011871E-2
8.913207103E0,1.504381280E-2,-1.449094433E-2,2.717018127E-3
8.918207103E0,9.962299839E-3,1.436579973E-3,-1.444244385E-2
8.923207103E0,2.025887370E-3,8.538916707E-3,-2.575874329E-3
8.928207103E0,5.909824744E-3,8.389299735E-3,8.650779724E-3
8.933207103E0,7.834304124E-4,-4.647718742E-3,7.012367249E-3
8.938207103E0,-1.267587766E-3,7.308945060E-4,-6.007194519E-3
8.943207103E0,8.924390189E-3,4.303121939E-3,2.317428589E-3
8.948207103E0,2.979111858E-3,-5.228152499E-3,-7.629394531E-5
8.953207103E0,-2.824077383E-4,-1.923462749E-2,1.968574524E-2
8.958207103E0,-3.499919083E-3,1.986004412E-3,4.393577576E-3
8.963207103E0,4.452370107E-3,8.398184553E-3,-2.582550049E-3
8.968207103E0,1.204847544E-2,-1.953721046E-3,-1.797103882E-2
8.973207103E0,-2.957880497E-5,-7.078614086E-3,-8.451461792E-3
8.978207103E0,6.086184643E-3,1.808922738E-3,1.133060455E-2
8.983207103E0,1.189787872E-3,9.267799556E-3,4.174232483E-3
8.988207103E0,4.359557293E-3,1.047074795E-3,6.977081299E-3
8.993207103E0,-1.018887386E-3,-1.756375656E-3,6.662368774E-3
8.998207103E0,2.862465568E-3,6.432581693E-3,-1.073646545E-2
9.003207103E0,1.224193349E-2,8.428288624E-3,-1.366138458E-2
9.008207103E0,1.151946373E-3,8.586402982E-4,-3.239631653E-3
9.013207103E0,-4.012612626E-3,1.106452197E-3,4.695892334E-3
9.018207103E0,2.094935626E-4,-3.909178078E-3,-3.635406494E-3
9.023207103E0,1.904470660E-2,-3.785226494E-3,-5.150794983E-3
9.028207103E0,7.428098470E-4,7.112590596E-3,1.938819885E-2
9.033207103E0,7.278406993E-4,-5.217898637E-3,-4.539489746E-4
9.038207103E0,-3.313774243E-3,-1.743236184E-2,-6.746292114E-3
9.043207103E0,2.492863685E-3,1.748191193E-3,-1.856136322E-2
9.048207103E0,5.814825185E-3,6.908286363E-3,-4.563903809E-2
9.053207103E0,2.606387250E-3,-1.137334853E-3,-2.114105225E-2
9.058207103E0,2.869191580E-3,-1.125011966E-2,3.351974487E-2
9.063207103E0,7.024302147E-3,-1.987697557E-3,2.038288116E-2
9.068207103E0,7.635711692E-3,2.133658156E-3,7.596015930E-3
9.073207103E0,4.529932514E-3,1.274509355E-2,1.189804077E-2
9.078207103E0,7.922541350E-3,-1.761252061E-3,-1.828098297E-2
9.083207103E0,-4.387811758E-3,2.756288275E-3,-3.115558624E-2
9.088207103E0,1.463941298E-3,7.592955604E-3,-7.909774780E-3
9.093207103E0,1.185591426E-2,1.134951226E-2,5.504608154E-3
9.098207103E0,9.276755154E-3,-5.894977599E-3,1.068115234E-2
9.103207103E0,1.003296953E-2,-3.974711522E-3,1.032161713E-2
9.108207103E0,2.337930724E-3,-9.646354243E-3,1.782703400E-2
9.113207103E0,3.873300739E-3,1.465750858E-3,-1.225471497E-3
9.118207103E0,1.334112138E-3,-7.257081568E-3,-9.943962097E-3
9.123207103E0,7.206414826E-3,-4.875937477E-3,-3.074073792E-2
9.128207103E0,2.355368808E-3,4.767589271E-3,-2.704524994E-2
9.133207103E0,7.971045561E-3,7.283123210E-3,-1.450347900E-2
9.138207103E0,7.785360329E-3,-5.265584216E-3,1.870727539E-2
9.143207103E0,-2.007418312E-3,-3.453474492E-4,4.432678223E-2
9.148207103E0,2.352381125E-3,-5.244720727E-3,2.300357819E-2
9.153207103E0,1.056976803E-2,9.474769235E-3,-1.422882080E-3
9.158207103E0,6.369263865E-3,1.604799181E-4,-4.603385925E-3
9.163207103E0,1.709777862E-4,-3.416050225E-3,-1.806259155E-2
9.168207103E0,2.752418630E-3,1.213988103E-2,-1.107215881E-2
9.173207103E0,8.721407503E-4,-3.749813884E-3,-2.910614014E-3
9.178207103E0,1.189763378E-2,-4.181731492E-3,2.464008331E-2
9.183207103E0,1.008439809E-3,-1.014190912E-2,1.318836212E-2
9.188207103E0,1.641144603E-2,2.180026844E-3,2.009391785E-3
9.193207103E0,2.624440007E-3,1.046842337E-2,-1.156234741E-2
9.198207103E0,-7.461722009E-3,2.207640558E-3,2.242088318E-3
9.203207103E0,2.632841468E-3,-1.393267885E-3,-1.878452301E-2
9.208207103E0,1.286777109E-2,2.292668447E-3,-7.446289062E-3
9.213207103E0,7.826657966E-3,-9.352900088E-5,4.048347473E-3
9.218207103E0,-5.457142368E-3,6.272187456E-3,1.061916351E-2
9.223207103E0,-9.799441323E-3,6.979715079E-3,4.498481750E-3
9.228207103E0,1.501881797E-2,2.747103572E-4,-5.227088928E-3
9.233207103E0,7.470862009E-3,-1.150083542E-2,-2.284431458E-2
9.238207103E0,-1.763021573E-4,4.493985325E-4,-2.958011627E-2
9.243207103E0,-9.202001616E-3,7.134787738E-3,-1.799869537E-2
9.248207103E0,8.682667278E-3,2.980951220E-3,-4.270553589E-3
9.253207103E0,6.789751351E-3,1.912735403E-3,2.932167053E-2
9.258207103E0,2.184328623E-3,-6.764531136E-3,6.914138794E-4
9.263207103E0,7.922064513E-3,7.263526320E-3,-1.823425293E-2
9.268207103E0,2.019481733E-3,1.885134727E-3,-5.841255188E-3
9.273207103E0,6.126816384E-3,-4.350878298E-3,3.806114197E-3
9.278207103E0,-3.030570690E-3,6.808262318E-3,-1.241683960E-3
9.283207103E0,1.385950483E-3,5.807451904E-3,-1.557636261E-2
9.288207103E0,1.000088919E-2,-7.359605283E-3,-4.731178284E-3
9.293207103E0,-4.073156975E-3,-2.089207992E-3,-2.302169800E-3
9.298207103E0,8.412483148E-3,4.356611520E-3,1.192092896E-3
9.303207103E0,1.128735952E-2,3.928426653E-3,8.784294128E-3
9.308207103E0,-1.029822044E-3,-1.012520865E-3,-8.888244629E-4
9.313207103E0,-1.152718440E-3,1.170733944E-3,-1.596260071E-2
9.318207103E0,2.568362281E-3,5.374331027E-3,-9.388923645E-3
9.323207103E0,1.726250350E-2,-8.920580149E-4,-4.130363464E-3
9.328207103E0,6.978075020E-3,-7.684100419E-4,-4.073143005E-3
9.333207103E0,-6.543559488E-3,4.154717550E-3,-1.385211945E-2
9.338207103E0,5.559892394E-3,-1.150125638E-3,-6.111145020E-3
9.343207103E0,-3.327162936E-3,-6.819933653E-3,-1.701354980E-3
9.348207103E0,1.196996123E-2,-5.897613242E-3,-7.412910461E-3
9.353207103E0,1.190475188E-3,2.592267469E-3,-1.344966888E-2
9.358207103E0,1.581315883E-3,-5.738060921E-3,-1.913547516E-2
9.363207103E0,1.013134420E-2,-6.821703166E-3,-1.474475861E-2
9.368207103E0,6.258454174E-3,1.679651439E-3,-1.068782806E-2
9.373207103E0,1.423066948E-2,-2.645716071E-3,-2.696895599E-2
9.378207103E0,1.017744094E-2,5.089307204E-3,-4.453659058E-4
9.383207103E0,2.438039519E-3,2.856079489E-3,1.082420349E-2
9.388207103E0,3.266436979E-4,-6.009155884E-3,2.496528625E-2
9.393207103E0,1.312711556E-2,1.356814243E-2,2.161693573E-2
9.398207103E0,1.783060469E-2,-2.710880712E-3,1.352119446E-2
9.403207103E0,6.799813360E-3,1.538731158E-4,1.523971558E-3
9.408207103E0,-7.708046120E-3,1.610353589E-3,-5.423545837E-3
9.413207103E0,-2.280271612E-3,1.041071489E-3,1.060962677E-2
9.418207103E0,4.520033486E-3,-4.589559510E-3,2.334117889E-2
9.423207103E0,9.035733528E-3,-3.832930699E-3,4.353523254E-3
9.428207103E0,-6.389001850E-3,8.770046756E-3,-1.539230347E-3
9.433207103E0,1.466677245E-2,5.339140072E-3,-4.588127136E-3
9.438207103E0,1.017512102E-2,-3.712231293E-3,-4.569053650E-3
9.443207103E0,3.425853327E-3,-5.813650787E-4,-1.481437683E-2
9.448207103E0,-2.073699608E-3,-6.432048976E-3,-1.427078247E-2
9.453207103E0,1.947064884E-3,-4.816858098E-3,-1.867961884E-2
9.458207103E0,5.938252434E-3,-6.616218016E-3,-1.493930817E-2
9.463207103E0,-9.203097783E-3,8.608160540E-3,3.668785095E-3
9.468207103E0,2.968335524E-3,-1.335479319E-3,2.947807312E-3
9.473207103E0,1.390771288E-2,6.423655897E-3,-5.455017090E-4
9.478207103E0,5.156189203E-3,-5.053304136E-3,-9.643554688E-3
9.483207103E0,1.839929260E-3,7.225476205E-3,-1.409530640E-3
9.488207103E0,5.925964564E-3,3.056470305E-3,-1.731681824E-2
9.493207103E0,1.759687439E-2,-1.492766663E-3,-1.349353790E-2
9.498207103E0,1.833811402E-4,-1.065030880E-2,-2.981185913E-3
9.503207103E0,7.535368204E-4,1.158644818E-2,-1.400184631E-2
9.508207103E0,3.014036454E-3,6.571616977E-3,-5.035400391E-4
9.513207103E0,1.406838931E-2,-1.263484545E-2,9.469985962E-3
9.518207103E0,1.351670828E-2,-1.077562757E-2,1.362228394E-2
9.523207103E0,5.934770219E-3,6.521521136E-3,-1.714038849E-2
9.528207103E0,3.717968240E-3,1.527605578E-3,-2.209663391E-2
9.533207103E0,-3.616591450E-3,2.472890541E-3,-1.964569092E-3
9.538207103E0,4.663816653E-3,2.196012065E-3,2.051639557E-2
9.543207103E0,1.402399037E-2,6.327630952E-3,-1.035690308E-3
9.548207103E0,9.924148209E-3,-1.185113564E-3,-9.019851685E-3
9.553207103E0,-2.278411761E-3,-4.917543381E-3,5.448341370E-3
9.558207103E0,-2.868388779E-3,-6.624758244E-4,2.864933014E-2
9.563207103E0,1.051864028E-2,-1.475214958E-5,1.985168457E-2
9.568207103E0,1.484288462E-2,-7.324712351E-3,-3.681182861E-3
9.573207103E0,2.858758904E-3,8.228030056E-4,-1.825237274E-2
9.578207103E0,-9.978739545E-4,1.470199414E-2,-2.397537231E-3
9.583207103E0,1.413696446E-3,1.432614774E-2,1.671218872E-2
9.588207103E0,1.083969045E-2,1.174367964E-3,2.013778687E-2
9.593207103E0,7.074032910E-3,6.581198424E-3,3.022193909E-3
9.598207103E0,3.046141006E-3,-9.522959590E-5,-3.390312195E-2
9.603207103E0,1.441494841E-2,-1.084557734E-2,-2.797508240E-2
9.608207103E0,-1.077075023E-2,-6.879109889E-3,-5.057334900E-3
9.613207103E0,-2.449752763E-3,9.352965280E-3,1.113891602E-2
9.618207103E0,1.291688439E-2,7.197571918E-3,2.002716064E-5
9.623207103E0,1.668782905E-2,1.054454595E-3,-9.557723999E-3
9.628207103E0,8.129249327E-3,-1.347208396E-2,-1.975154877E-2
9.633207103E0,8.812444285E-4,-9.625963867E-5,-1.505756378E-2
9.638207103E0,-1.121453941E-3,1.520870440E-2,6.564140320E-3
9.643207103E0,7.047345862E-3,-1.101055183E-2,1.721668243E-2
9.648207103E0,5.399256013E-3,-1.696179248E-2,-5.322456360E-3
9.653207103E0,7.227161899E-3,-1.623886079E-2,-1.893997192E-2
9.658207103E0,6.573011167E-3,-5.506724119E-4,-4.420280457E-3
9.663207103E0,3.406157717E-3,-6.321234629E-3,1.639938354E-2
9.668207103E0,1.280645840E-3,-5.586560816E-3,1.148605347E-2
9.673207103E0,-5.636117887E-3,2.814214677E-4,-2.705574036E-3
9.678207103E0,2.830782905E-4,3.688666970E-3,-2.120971680E-3
9.683207103E0,-3.258047625E-3,1.035804003E-1,-7.382640839E-1
9.688207103E0,-6.402242780E-1,3.974448144E-1,1.121168137E-1
9.693207103E0,-3.864299655E-1,-4.880379885E-3,1.245040894E0
9.698207103E0,3.132843971E-1,-2.872521281E-1,3.386869431E-1
9.703207103E0,8.274719715E-1,-2.285441756E-1,-1.413418770E0
9.708207103E0,7.391413450E-1,-2.620870471E-1,-6.791439056E-1
9.713207103E0,-7.565528154E-2,-6.106067449E-2,7.367095947E-1
9.718207103E0,-3.295578659E-1,3.132069409E-1,-9.111118317E-2
9.723207103E0,-5.234197974E-1,2.141528726E-1,-8.873462677E-2
9.728207103E0,-2.845927775E-1,-1.368084848E-1,1.125008583E0
9.733207103E0,-7.111918181E-2,-1.264684498E-1,9.975728989E-1
9.738207103E0,2.501753867E-1,1.112342626E-1,-1.007295609E0
9.743207103E0,4.390968680E-1,8.336758614E-2,-1.546659470E0
9.748207103E0,2.668564618E-1,-1.096677631E-1,-7.414436340E-2
9.753207103E0,-1.389728040E-1,-7.091692835E-2,8.487167358E-1
9.758207103E0,-2.678267658E-1,9.578359872E-2,1.297855377E-1
9.763207103E0,-3.111788929E-1,1.003438011E-1,1.020183563E-1
9.768207103E0,-1.186420396E-1,-2.539822459E-2,6.367769241E-1
9.773207103E0,2.534700632E-1,-9.268620610E-2,-1.223592758E-1
9.778207103E0,3.037578166E-1,4.409982264E-2,-9.770650864E-1
9.783207103E0,1.917517632E-1,2.288374864E-2,-4.953517914E-1
9.788207103E0,-8.565630019E-2,-2.103350870E-2,5.311031342E-1
9.793207103E0,-2.638160586E-1,-8.968103677E-3,4.860239029E-1
9.798207103E0,-2.199899703E-1,5.834098905E-2,2.535982132E-1
9.803207103E0,1.276636217E-2,9.705243632E-3,-1.764678955E-2
9.808207103E0,2.622241080E-1,-5.593436211E-2,-3.583211899E-1
9.813207103E0,2.404988408E-1,-2.448151633E-2,-4.272375107E-1
9.818207103E0,7.002360187E-3,1.145750843E-2,-7.444190979E-2
9.823207103E0,-1.976845562E-1,2.638136223E-2,3.732337952E-1
9.828207103E0,-1.904675812E-1,3.310078755E-3,3.951921463E-1
9.833207103E0,-1.419710089E-2,-3.807872534E-3,3.978633881E-2
9.838207103E0,1.599298418E-1,9.621676058E-3,-3.870038986E-1
9.843207103E0,1.785307825E-1,-7.124532014E-3,-3.492288589E-1
9.848207103E0,1.866868883E-2,-1.467137225E-2,4.697990417E-2
9.853207103E0,-1.508344263E-1,9.666875005E-3,2.960958481E-1
9.858207103E0,-1.505101770E-1,2.997896262E-2,2.315559387E-1
9.863207103E0,1.446635462E-3,-1.017213054E-2,-3.244495392E-2
9.868207103E0,1.526591480E-1,-1.627315208E-2,-2.477302551E-1
9.873207103E0,1.079453677E-1,-1.416021213E-2,-2.331590652E-1
9.878207103E0,-9.385830723E-3,2.997049503E-2,1.181125641E-2
9.883207103E0,-1.143431664E-1,-1.259351149E-3,2.349491119E-1
9.888207103E0,-8.305852860E-2,1.127968170E-2,2.231512070E-1
9.893207103E0,1.486787479E-2,-4.278335720E-3,-4.785060883E-2
9.898207103E0,1.179287583E-1,-4.559729248E-3,-2.197265625E-1
9.903207103E0,8.575670421E-2,-6.747700274E-3,-1.489982605E-1
9.908207103E0,-1.916467026E-2,-9.140124545E-3,2.924537659E-2
9.913207103E0,-1.045754254E-1,1.426048763E-2,1.732559204E-1
9.918207103E0,-5.026246607E-2,5.635861307E-4,1.055479050E-1
9.923207103E0,4.374251887E-2,-1.199806109E-3,-3.484058380E-2
9.928207103E0,9.312566370E-2,-1.089102030E-2,-1.432113647E-1
9.933207103E0,6.157520413E-2,-2.921508625E-3,-7.984733582E-2
9.938207103E0,-2.463359945E-2,8.612293750E-4,7.584285736E-2
9.943207103E0,-7.758843154E-2,2.027921379E-3,1.271581650E-1
9.948207103E0,-4.150563478E-2,-1.649415120E-3,4.745006561E-2
9.953207103E0,4.117657989E-2,9.030252695E-4,-9.134387970E-2
9.958207103E0,6.674786657E-2,2.907810733E-3,-1.194705963E-1
9.963207103E0,2.062651515E-2,-5.265381187E-4,-3.165340424E-2
9.968207103E0,-4.526979849E-2,-1.168787479E-3,8.209037781E-2
9.973207103E0,-5.831570178E-2,4.010571167E-3,9.430503845E-2
9.978207103E0,-9.662108496E-4,1.253942214E-2,4.917144775E-3
9.983207103E0,6.227507442E-2,-6.248721853E-3,-8.700275421E-2
9.988207103E0,4.559521377E-2,-1.750085503E-4,-8.129882812E-2
9.993207103E0,-7.572272792E-3,-2.511534840E-3,-1.403713226E-2
9.998207103E0,-2.285050228E-2,2.347633243E-3,7.266235352E-2
1.000320710E1,-2.901467495E-2,9.233523160E-4,7.250499725E-2
1.000820710E1,6.999347359E-3,1.308771037E-2,-1.151943207E-2
1.001320710E1,5.045446754E-2,-6.651073694E-3,-8.064937592E-2
1.001820710E1,3.815018386E-2,-2.906283364E-3,-4.708862305E-2
1.002320710E1,-1.873028651E-2,-4.673754796E-3,3.739261627E-2
1.002820710E1,-3.635988384E-2,1.618315466E-2,5.696487427E-2
1.003320710E1,1.047511585E-3,6.993299350E-3,3.586292267E-2
1.003820710E1,2.598299831E-2,-1.077893563E-2,-4.441356659E-2
1.004320710E1,2.303397469E-2,-5.015060306E-3,-6.760883331E-2
1.004820710E1,9.994227439E-3,5.025988445E-3,-1.888465881E-2
1.005320710E1,-7.884774357E-3,8.676448837E-3,3.621006012E-2
1.005820710E1,-1.138629019E-2,8.522130549E-3,6.686019897E-2
1.006320710E1,1.360957604E-2,1.596203074E-3,8.707046509E-3
1.006820710E1,2.700770460E-2,-1.952648163E-3,-5.394363403E-2
1.007320710E1,1.412745658E-2,-2.156252041E-3,-5.444145203E-2
1.007820710E1,-7.875028998E-3,7.856903598E-3,-1.702499390E-2
1.008320710E1,-1.528963074E-2,2.067876980E-3,3.528118134E-2
1.008820710E1,-3.281573765E-3,1.054212451E-2,1.255226135E-2
1.009320710E1,1.361103076E-2,-1.784816384E-3,-2.722167969E-2
1.009820710E1,2.083938941E-2,-1.373102516E-2,-4.003810883E-2
1.010320710E1,1.343995612E-2,-2.674769610E-3,1.992225647E-3
1.010820710E1,-7.021903060E-3,3.032239154E-3,4.295444489E-2
1.011320710E1,-1.411984954E-2,8.887246251E-3,3.288936615E-2
1.011820710E1,5.337279290E-3,-4.249123856E-3,1.878738403E-4
1.012320710E1,1.373840962E-2,9.410053492E-3,-3.945064545E-2
1.012820710E1,1.296957489E-2,-5.569605157E-3,-3.617572784E-2
1.013320710E1,3.993696533E-3,2.517553046E-3,1.445102692E-2
1.013820710E1,-1.754697785E-2,3.331597894E-3,5.175971985E-2
1.014320710E1,-4.735309631E-4,7.368931547E-3,3.104209900E-3
1.014820710E1,2.056385204E-2,2.621408552E-3,-2.124214172E-2
1.015320710E1,8.948058821E-3,-5.509600043E-3,-2.696990967E-2
1.015820710E1,4.128549248E-3,3.809155896E-3,-3.265380859E-3
1.016320710E1,4.605408758E-3,5.200898275E-3,1.281166077E-2
