"Time (s)","Linear Acceleration x (m/s^2)","Linear Acceleration y (m/s^2)","Linear Acceleration z (m/s^2)"
6.507710000E-2,0.000000000E0,0.000000000E0,0.000000000E0
7.007710000E-2,-3.809213638E-2,-1.178588867E-1,-2.945537567E-1
7.507710000E-2,-1.282030344E-1,-1.991639137E-1,-5.324201584E-1
8.007710000E-2,-1.877388358E-1,-2.440218925E-1,-5.321846008E-1
8.507710000E-2,-1.126364470E-1,-2.572345734E-1,-3.561906815E-1
9.007710000E-2,-1.575273275E-2,-1.916446686E-1,-1.372900009E-1
9.507710000E-2,-3.121078014E-2,-5.964994431E-2,1.529998779E-1
1.000771000E-1,-9.711146355E-3,8.492422104E-2,4.168949127E-1
1.050771000E-1,1.387227774E-1,1.710071564E-1,6.753797531E-1
1.100771000E-1,3.315775990E-1,1.887688637E-1,8.166713715E-1
1.150771000E-1,5.350636244E-1,1.685419083E-1,8.244647980E-1
1.200771000E-1,6.451963186E-1,1.441087723E-1,7.465248108E-1
1.250771000E-1,6.796200871E-1,1.172904968E-1,5.878591537E-1
1.300771000E-1,6.588025093E-1,1.114568710E-1,4.245290756E-1
1.350771000E-1,4.622556567E-1,1.279706955E-1,2.559080124E-1
1.400771000E-1,3.997358680E-1,8.791685104E-2,1.441574097E-1
1.450771000E-1,3.957397938E-1,3.002929688E-2,1.154041290E-1
1.500771000E-1,3.998246789E-1,1.902580261E-3,1.173381805E-1
1.550771000E-1,4.262301326E-1,-1.165294647E-2,7.982540131E-2
1.600771000E-1,3.589263856E-1,4.119825363E-2,-9.671497345E-2
1.650771000E-1,2.978487015E-1,7.791566849E-2,-2.409038544E-1
1.700771000E-1,2.858319283E-1,8.308696747E-2,-3.375663757E-1
1.750771000E-1,3.348774314E-1,7.450294495E-2,-3.902349472E-1
1.800771000E-1,4.421090186E-1,3.663778305E-2,-4.074354172E-1
1.850771000E-1,5.681157112E-1,-3.755569458E-3,-4.653825760E-1
1.900771000E-1,6.153100729E-1,-4.451465607E-2,-5.832839012E-1
1.950771000E-1,6.121300459E-1,-6.545877457E-2,-7.509746552E-1
2.000771000E-1,5.643708110E-1,-4.417276382E-2,-8.632955551E-1
2.050771000E-1,4.902682304E-1,9.747028351E-3,-9.499683380E-1
2.100771000E-1,3.741610050E-1,5.589723587E-2,-1.050687790E0
2.150771000E-1,2.439307570E-1,1.231360435E-1,-1.135932446E0
2.200771000E-1,1.348023415E-1,1.839847565E-1,-1.210379601E0
2.250771000E-1,8.692264557E-2,2.255206108E-1,-1.256208420E0
2.300771000E-1,4.607427120E-2,2.649855614E-1,-1.230174541E0
2.350771000E-1,-1.259195805E-2,3.273577690E-1,-1.121508598E0
2.400771000E-1,-6.653606892E-2,3.849630356E-1,-9.486608505E-1
2.450771000E-1,-1.403731108E-1,4.687104225E-1,-7.908077240E-1
2.500771000E-1,-3.983079195E-1,6.257929802E-1,-6.587285995E-1
2.550771000E-1,-7.263774872E-1,7.575626373E-1,-5.800900459E-1
2.600771000E-1,-7.755610943E-1,6.549172401E-1,-1.374430656E-1
2.650771000E-1,-4.270273447E-1,2.939920425E-1,8.161277771E-1
2.700771000E-1,-1.031965017E-1,6.322574615E-2,1.259317398E0
2.750771000E-1,-2.814640999E-1,1.930899620E-1,8.169641495E-1
2.800771000E-1,-2.753818035E-1,2.664904594E-1,8.222312927E-1
2.850771000E-1,3.734791279E-2,6.351280212E-2,1.072712898E0
2.900771000E-1,1.898303032E-1,-2.724504471E-2,1.051711082E0
2.950771000E-1,2.536302805E-1,-5.762195587E-2,8.310050964E-1
3.000771000E-1,1.927788258E-1,-3.554677963E-2,5.797338486E-1
3.050771000E-1,8.905780315E-2,-5.709934235E-2,4.171600342E-1
3.100771000E-1,-6.848108768E-2,-6.450414658E-2,3.099832535E-1
3.150771000E-1,-1.839421988E-1,-1.022138596E-1,2.678775787E-1
3.200771000E-1,-2.374385595E-1,-1.856389046E-1,3.152122498E-1
3.250771000E-1,-2.439643145E-1,-2.747993469E-1,3.319625854E-1
3.300771000E-1,-2.195408344E-1,-2.986121178E-1,2.878046036E-1
3.350771000E-1,-2.131872177E-1,-2.821502686E-1,6.311798096E-2
3.400771000E-1,-4.927945137E-2,-2.942333221E-1,-1.892471313E-2
3.450771000E-1,4.679822922E-2,-2.353973389E-1,-6.279087067E-2
3.500771000E-1,2.123479843E-1,-1.916813850E-1,-3.182125092E-2
3.550771000E-1,3.652269840E-1,-1.656284332E-1,2.334756851E-1
3.600771000E-1,3.968625069E-1,-1.261444092E-1,6.194200516E-1
3.650771000E-1,2.651422024E-1,1.800918579E-2,5.640363693E-1
3.700771000E-1,2.382365465E-1,1.488590240E-1,3.195161819E-1
3.750771000E-1,2.192233801E-1,2.151517868E-1,9.461498260E-2
3.800771000E-1,1.443871260E-1,2.238950729E-1,-9.627819061E-2
3.850771000E-1,2.588894367E-1,8.815383911E-2,-1.864767075E-1
3.900771000E-1,2.579315901E-1,3.163146973E-2,-4.161186218E-1
3.950771000E-1,1.826086044E-1,5.663871765E-3,-4.513692856E-1
4.000771000E-1,9.963142872E-2,-8.692741394E-3,-4.612464905E-1
4.050771000E-1,1.129349470E-1,-3.888511658E-2,-4.990487099E-1
4.100771000E-1,1.075232029E-2,1.289987564E-2,-5.445833206E-1
4.150771000E-1,-1.027534008E-1,6.139230728E-2,-4.926385880E-1
4.200771000E-1,-1.794155836E-1,8.141994476E-2,-5.038309097E-1
4.250771000E-1,-2.566275597E-1,6.917333603E-2,-4.520597458E-1
4.300771000E-1,-3.231165409E-1,4.916715622E-2,-3.355989456E-1
4.350771000E-1,-6.459255219E-1,1.711573601E-1,-2.446742058E-1
4.400771000E-1,-8.030122519E-1,1.652369499E-1,-1.105794907E-1
4.450771000E-1,-8.670217991E-1,1.098432541E-1,-9.892082214E-2
4.500771000E-1,-6.381791830E-1,-1.208825111E-1,-1.458959579E-1
4.550771000E-1,-3.533364534E-1,-3.732948303E-1,2.269363403E-2
4.600771000E-1,-1.613134146E-1,-4.150528908E-1,-1.424312592E-2
4.650771000E-1,-3.726148605E-2,-3.533968925E-1,-5.151844025E-2
4.700771000E-1,8.406400681E-3,-1.997380257E-1,-2.647018433E-2
4.750771000E-1,5.667316914E-2,-8.215427399E-2,-1.787662506E-2
4.800771000E-1,1.066510677E-1,-1.699876785E-2,2.986812592E-2
4.850771000E-1,2.219073772E-1,-1.594495773E-2,1.496877670E-1
4.900771000E-1,2.878262997E-1,2.869939804E-2,2.235116959E-1
4.950771000E-1,2.362290621E-1,1.107444763E-1,1.363515854E-1
5.000771000E-1,1.419284344E-1,7.623052597E-2,9.280681610E-2
5.050771000E-1,4.433965683E-2,4.011154175E-3,1.834096909E-1
5.100771000E-1,2.118045092E-1,-1.428222656E-1,3.462495804E-1
5.150771000E-1,6.981140375E-1,-4.560365677E-1,4.274682999E-1
5.200771000E-1,6.658824682E-1,-5.190458298E-1,3.148174286E-2
5.250771000E-1,1.853466034E-1,-2.626647949E-1,-3.002223969E-1
5.300771000E-1,-1.282961369E-1,-2.033891678E-1,-2.410402298E-1
5.350771000E-1,-1.118198633E-1,-1.879305840E-1,-2.995586395E-2
5.400771000E-1,1.003905535E-1,-1.358394623E-1,-8.496952057E-2
5.450771000E-1,2.835583687E-1,-7.996892929E-2,6.063365936E-2
5.500771000E-1,4.456175566E-1,-1.957988739E-2,2.616662979E-1
5.550771000E-1,5.408452749E-1,1.679115295E-1,3.701267242E-1
5.600771000E-1,5.411795378E-1,4.702429771E-1,4.926910400E-1
5.650771000E-1,4.377199411E-1,6.872587204E-1,6.385374069E-1
5.700771000E-1,4.141637087E-1,6.821408272E-1,7.301959991E-1
5.750771000E-1,4.137312174E-1,5.339169502E-1,7.227478027E-1
5.800771000E-1,3.425273895E-1,3.929152489E-1,6.430892944E-1
5.850771000E-1,1.900610924E-1,2.853126526E-1,6.592588425E-1
5.900771000E-1,6.562435627E-2,2.737517357E-1,6.510763168E-1
5.950771000E-1,4.540348053E-2,2.543339729E-1,5.886545181E-1
6.000771000E-1,1.209784746E-1,1.833972931E-1,4.849529266E-1
6.050771000E-1,2.451003790E-1,9.253692627E-2,3.370018005E-1
6.100771000E-1,3.285632133E-1,4.093647003E-3,1.412544250E-1
6.150771000E-1,3.607937098E-1,-6.336355209E-2,-9.088134766E-2
6.200771000E-1,3.177503347E-1,-5.407571793E-2,-2.936568260E-1
6.250771000E-1,1.927248240E-1,1.671123505E-2,-3.719081879E-1
6.300771000E-1,3.687500954E-2,9.511184692E-2,-3.777747154E-1
6.350771000E-1,-4.317450523E-2,1.383876801E-1,-3.624696732E-1
6.400771000E-1,-3.411436081E-2,1.066169739E-1,-3.469476700E-1
6.450771000E-1,4.521524906E-2,5.913400650E-2,-3.601226807E-1
6.500771000E-1,6.099545956E-2,1.711034775E-2,-3.657426834E-1
6.550771000E-1,1.069808006E-2,-1.106214523E-2,-3.184080124E-1
6.600771000E-1,8.712291718E-3,1.166677475E-2,-2.720208168E-1
6.650771000E-1,2.296960354E-2,2.677917480E-2,-1.983680725E-1
6.700771000E-1,5.293869972E-2,1.283121109E-2,-7.246017456E-3
6.750771000E-1,1.534111500E-1,3.941059113E-3,1.603698730E-1
6.800771000E-1,2.359350920E-1,-1.399946213E-2,2.120103836E-1
6.850771000E-1,1.961156130E-1,-4.218339920E-2,1.574707031E-1
6.900771000E-1,1.226086617E-1,-9.823226929E-2,3.131484985E-2
6.950771000E-1,1.624420881E-1,-2.069702148E-1,-1.807355881E-1
7.000771000E-1,3.058233261E-1,-2.969427109E-1,-3.539705276E-1
7.050771000E-1,4.254230261E-1,-3.399600983E-1,-5.297508240E-1
7.100771000E-1,5.606762171E-1,-3.370060921E-1,-7.138223648E-1
7.150771000E-1,6.621693373E-1,-2.955894470E-1,-9.083061218E-1
7.200771000E-1,7.248899937E-1,-2.460227013E-1,-1.116836548E0
7.250771000E-1,7.109915018E-1,-1.533789635E-1,-1.285244942E0
7.300771000E-1,7.823097706E-1,-9.523725510E-2,-1.454325199E0
7.350771000E-1,9.115576744E-1,-1.005549431E-1,-1.578401089E0
7.400771000E-1,9.516333342E-1,-1.103029251E-1,-1.541232109E0
7.450771000E-1,8.966593742E-1,-1.081428528E-1,-1.397928238E0
7.500771000E-1,8.391556740E-1,9.995603561E-2,-1.164208412E0
7.550771000E-1,6.726278067E-1,2.018003464E-1,-9.362015724E-1
7.600771000E-1,3.729122877E-1,3.563022614E-2,-7.653284073E-1
7.650771000E-1,2.269494534E-2,-2.036385536E-1,-7.198314667E-1
7.700771000E-1,-3.196934462E-1,-2.977972031E-1,-6.284160614E-1
7.750771000E-1,-4.829204082E-1,-1.306796074E-1,-3.934049606E-1
7.800771000E-1,-4.200943708E-1,-7.748651505E-2,-6.801795959E-2
7.850771000E-1,-5.498998165E-1,2.988233566E-1,-8.098888397E-2
7.900771000E-1,-9.278969765E-1,8.522310257E-1,-3.595480919E-1
7.950771000E-1,-1.277558208E0,1.450109959E0,-6.893773079E-1
8.000771000E-1,-1.468362570E0,1.715891361E0,-1.043547630E0
8.050771000E-1,-1.516089797E0,1.753914833E0,-1.069430351E0
8.100771000E-1,-1.479630828E0,1.502733707E0,-9.198904037E-1
8.150771000E-1,-1.490632892E0,1.290813923E0,-8.032240868E-1
8.200771000E-1,-1.455909133E0,1.150473595E0,-6.606540680E-1
8.250771000E-1,-1.347697735E0,1.087400913E0,-5.106329918E-1
8.300771000E-1,-1.208265781E0,1.064899445E0,-3.432164192E-1
8.350771000E-1,-1.023886919E0,1.034341335E0,-1.534652710E-1
8.400771000E-1,-8.617720604E-1,9.918017387E-1,3.616189957E-2
8.450771000E-1,-7.742762566E-1,9.340119362E-1,2.012691498E-1
8.500771000E-1,-7.446415424E-1,8.804163933E-1,3.639669418E-1
8.550771000E-1,-7.599785328E-1,8.686695099E-1,4.718523026E-1
8.600771000E-1,-7.553203106E-1,8.863205910E-1,4.977836609E-1
8.650771000E-1,-7.280707359E-1,8.810796738E-1,4.843959808E-1
8.700771000E-1,-7.569508553E-1,8.148846626E-1,4.765810966E-1
8.750771000E-1,-7.783689499E-1,6.965265274E-1,5.452136993E-1
8.800771000E-1,-7.055258751E-1,4.774475098E-1,6.989979744E-1
8.850771000E-1,-4.511520863E-1,2.236852646E-1,9.177560806E-1
8.900771000E-1,-1.136765480E-1,-3.626728058E-2,1.108616352E0
8.950771000E-1,1.492657661E-1,-2.639298439E-1,1.234418869E0
9.000771000E-1,3.497226238E-1,-4.098534584E-1,1.343121052E0
9.050771000E-1,3.937139511E-1,-4.334120750E-1,1.342127323E0
9.100771000E-1,3.450443745E-1,-3.584375381E-1,1.253098965E0
9.150771000E-1,2.361781597E-1,-2.621383667E-1,1.149559975E0
9.200771000E-1,1.606774330E-1,-1.854000092E-1,1.071544647E0
9.250771000E-1,1.313962936E-1,-1.509342194E-1,1.007345200E0
9.300771000E-1,1.500613689E-1,-1.733970642E-1,1.002299309E0
9.350771000E-1,1.525266171E-1,-2.313518524E-1,1.032682419E0
9.400771000E-1,1.793489456E-1,-2.992920876E-1,1.125713825E0
9.450771000E-1,2.104861736E-1,-4.018406868E-1,1.205288410E0
9.500771000E-1,2.364718914E-1,-5.039496422E-1,1.322697639E0
9.550771000E-1,2.470612526E-1,-6.251344681E-1,1.403596401E0
9.600771000E-1,3.121638298E-1,-7.365417480E-1,1.426213741E0
9.650771000E-1,3.594248295E-1,-8.067216873E-1,1.424082279E0
9.700771000E-1,2.875075340E-1,-9.020171165E-1,1.423714161E0
9.750771000E-1,1.629228592E-1,-1.036283970E0,1.402799129E0
9.800771000E-1,1.276869774E-1,-1.156720161E0,1.328064442E0
9.850771000E-1,2.369263172E-1,-1.205950737E0,1.399620056E0
9.900771000E-1,4.180340767E-1,-1.143719196E0,1.564503193E0
9.950771000E-1,6.071207523E-1,-1.073269367E0,1.558970451E0
1.000077100E0,7.648816109E-1,-9.804883003E-1,1.512687683E0
1.005077100E0,8.153355122E-1,-9.111809731E-1,1.570952892E0
1.010077100E0,7.975044250E-1,-8.749179840E-1,1.570771217E0
1.015077100E0,7.228212357E-1,-8.064789772E-1,1.314959526E0
1.020077100E0,8.537689447E-1,-8.325514793E-1,6.840496063E-1
1.025077100E0,9.353892803E-1,-8.861665726E-1,-5.996751785E-1
1.030077100E0,9.426467419E-1,-1.002381802E0,-2.175317287E0
1.035077100E0,9.789636135E-1,-1.051006317E0,-1.947945595E0
1.040077100E0,9.898874760E-1,-1.003528595E0,-1.281719208E0
1.045077100E0,1.049407721E0,-8.698072433E-1,-5.565876961E-1
1.050077100E0,1.128854513E0,-7.237100601E-1,-1.205778122E-2
1.055077100E0,1.146002769E0,-5.983748436E-1,3.286323547E-1
1.060077100E0,1.177844048E0,-5.085721016E-1,4.145154953E-1
1.065077100E0,1.137665629E0,-4.818773270E-1,3.685293198E-1
1.070077100E0,1.082246661E0,-4.908070564E-1,3.267397881E-1
1.075077100E0,1.032238483E0,-5.042982101E-1,2.148756981E-1
1.080077100E0,9.479435682E-1,-5.498242378E-1,1.162195206E-2
1.085077100E0,8.589165211E-1,-5.978369713E-1,-1.594920158E-1
1.090077100E0,7.795708179E-1,-6.477727890E-1,-1.684112549E-1
1.095077100E0,6.763305664E-1,-6.994204521E-1,-1.542673111E-1
1.100077100E0,5.906486511E-1,-7.410941124E-1,-5.595541000E-2
1.105077100E0,5.880684853E-1,-7.960581779E-1,3.611850739E-2
1.110077100E0,6.082806587E-1,-7.945332527E-1,-5.405521393E-2
1.115077100E0,5.756828785E-1,-6.986112595E-1,-1.991281509E-1
1.120077100E0,5.398375988E-1,-5.816507339E-1,-3.002858162E-1
1.125077100E0,5.408875942E-1,-4.573097229E-1,-3.990969658E-1
1.130077100E0,5.095562935E-1,-3.178596497E-1,-4.633798599E-1
1.135077100E0,3.896315098E-1,-2.304162979E-1,-4.349937439E-1
1.140077100E0,2.262220383E-1,-1.527791023E-1,-3.775496483E-1
1.145077100E0,6.207871437E-2,-7.939481735E-2,-2.960252762E-1
1.150077100E0,-4.154586792E-2,1.403808594E-2,-2.537145615E-1
1.155077100E0,-1.351535320E-1,9.946441650E-2,-2.553434372E-1
1.160077100E0,-1.990242004E-1,1.570153236E-1,-2.246766090E-1
1.165077100E0,-2.762553692E-1,1.920447350E-1,-1.336073875E-1
1.170077100E0,-2.914104462E-1,2.088809013E-1,-4.899597168E-2
1.175077100E0,-2.536704540E-1,2.806625366E-1,2.665948868E-2
1.180077100E0,-1.501355171E-1,3.662395477E-1,1.165452003E-1
1.185077100E0,-6.587839127E-2,4.187936783E-1,2.300906181E-1
1.190077100E0,-1.685738564E-2,4.399738312E-1,3.266649246E-1
1.195077100E0,9.427309036E-3,4.067335129E-1,3.665604591E-1
1.200077100E0,1.782512665E-2,3.596744537E-1,3.598513603E-1
1.205077100E0,-5.874252319E-2,3.306260109E-1,3.714108467E-1
1.210077100E0,-2.313318253E-1,3.112607002E-1,4.003071785E-1
1.215077100E0,-3.521606922E-1,3.362441063E-1,5.190949440E-1
1.220077100E0,-3.758170605E-1,4.080510139E-1,6.680483818E-1
1.225077100E0,-4.026238918E-1,4.492921829E-1,8.154621124E-1
1.230077100E0,-4.639542103E-1,4.619078636E-1,9.919672012E-1
1.235077100E0,-5.517215729E-1,4.687218666E-1,1.148193836E0
1.240077100E0,-6.140465736E-1,4.873719215E-1,1.315002441E0
1.245077100E0,-6.005380154E-1,5.218076706E-1,1.432754040E0
1.250077100E0,-6.287069321E-1,5.079197884E-1,1.468716621E0
1.255077100E0,-8.523182869E-1,3.856573105E-1,1.483305454E0
1.260077100E0,-1.258880377E0,2.087740898E-1,1.430428982E0
1.265077100E0,-1.406805038E0,1.428165436E-1,1.385640144E0
1.270077100E0,-1.207092285E0,2.316794395E-1,1.326398373E0
1.275077100E0,-8.899080753E-1,3.622364998E-1,1.286292553E0
1.280077100E0,-5.871071815E-1,4.682869911E-1,1.259525299E0
1.285077100E0,-2.956254482E-1,5.024547577E-1,1.269493103E0
1.290077100E0,6.734609604E-3,4.800062180E-1,1.206937790E0
1.295077100E0,2.281172276E-1,4.400320053E-1,1.025206566E0
1.300077100E0,3.763072491E-1,3.781242371E-1,8.082594872E-1
1.305077100E0,4.404101372E-1,3.418951035E-1,6.140999794E-1
1.310077100E0,4.305591583E-1,3.081598282E-1,4.296021461E-1
1.315077100E0,4.309024811E-1,2.571158409E-1,2.360305786E-1
1.320077100E0,4.207859039E-1,2.404003143E-1,5.961036682E-2
1.325077100E0,3.950884342E-1,2.293725014E-1,-7.363510132E-2
1.330077100E0,2.691748142E-1,2.424573898E-1,-1.247415543E-1
1.335077100E0,1.078634262E-1,2.548141479E-1,-1.207966805E-1
1.340077100E0,-1.824808121E-2,2.673621178E-1,-9.549140930E-2
1.345077100E0,-7.554554939E-2,2.596249580E-1,-8.155679703E-2
1.350077100E0,-9.135508537E-2,2.604355812E-1,-8.237123489E-2
1.355077100E0,-1.448762417E-1,2.399449348E-1,-1.052527428E-1
1.360077100E0,-3.502602577E-1,1.585273743E-1,-1.285090446E-1
1.365077100E0,-5.669879913E-1,6.725788116E-2,-2.038345337E-1
1.370077100E0,-5.592494011E-1,7.163047791E-2,-2.245373726E-1
1.375077100E0,-4.079732895E-1,1.102967262E-1,-2.365078926E-1
1.380077100E0,-2.238080502E-1,1.938571930E-1,-2.557339668E-1
1.385077100E0,-6.681251526E-2,2.605061531E-1,-2.370805740E-1
1.390077100E0,7.038521767E-2,3.127346039E-1,-1.587042809E-1
1.395077100E0,1.685369015E-1,3.082613945E-1,-4.143047333E-2
1.400077100E0,2.458374500E-1,2.489213943E-1,5.743312836E-2
1.405077100E0,3.138906956E-1,1.706676483E-1,1.859183311E-1
1.410077100E0,3.747301102E-1,7.225751877E-2,2.412052155E-1
1.415077100E0,4.195320606E-1,-2.760124207E-2,2.350521088E-1
1.420077100E0,4.747440815E-1,-1.323647499E-1,1.898655891E-1
1.425077100E0,4.847042561E-1,-2.279014587E-1,1.129832268E-1
1.430077100E0,5.186731815E-1,-2.805008888E-1,-2.433776855E-3
1.435077100E0,5.295419693E-1,-3.038234711E-1,-1.299090385E-1
1.440077100E0,5.046601295E-1,-2.631516457E-1,-2.625803947E-1
1.445077100E0,4.653260708E-1,-1.576838493E-1,-3.597841263E-1
1.450077100E0,4.276640415E-1,-7.093238831E-2,-4.194049835E-1
1.455077100E0,3.612067699E-1,2.990245819E-3,-4.512290955E-1
1.460077100E0,2.763273716E-1,6.403732300E-2,-4.203372002E-1
1.465077100E0,1.609177589E-1,1.366057396E-1,-3.926868439E-1
1.470077100E0,7.948255539E-2,1.985912323E-1,-3.557181358E-1
1.475077100E0,2.728819847E-2,2.783093452E-1,-3.143339157E-1
1.480077100E0,1.211714745E-2,3.080544472E-1,-2.726817131E-1
1.485077100E0,-6.878852844E-3,3.381743431E-1,-2.516622543E-1
1.490077100E0,-5.290532112E-2,3.546795845E-1,-2.675971985E-1
1.495077100E0,-9.420418739E-2,3.466916084E-1,-2.553696632E-1
1.500077100E0,-1.200439930E-1,3.590531349E-1,-2.821073532E-1
1.505077100E0,-1.325557232E-1,3.882794380E-1,-2.994518280E-1
1.510077100E0,-1.813964844E-1,4.188899994E-1,-3.098583221E-1
1.515077100E0,-2.312631607E-1,4.516277313E-1,-3.634972572E-1
1.520077100E0,-3.075859547E-1,4.553089142E-1,-4.712667465E-1
1.525077100E0,-3.826274872E-1,4.601531029E-1,-5.830521584E-1
1.530077100E0,-3.872337341E-1,4.683127403E-1,-7.034039497E-1
1.535077100E0,-3.582012653E-1,4.592170715E-1,-8.226628304E-1
1.540077100E0,-3.114643097E-1,4.594869614E-1,-9.652619362E-1
1.545077100E0,-2.414312363E-1,4.426088333E-1,-1.087798595E0
1.550077100E0,-1.848902702E-1,3.963866234E-1,-1.234618187E0
1.555077100E0,-1.744468212E-1,3.363795280E-1,-1.352153301E0
1.560077100E0,-1.650955677E-1,2.951550484E-1,-1.474537373E0
1.565077100E0,-1.405153275E-1,1.791405678E-1,-1.601386547E0
1.570077100E0,-2.610752583E-1,2.807960510E-1,-1.373713493E0
1.575077100E0,-5.564279556E-1,5.173006058E-1,-1.247019768E0
1.580077100E0,-7.789456844E-1,6.958656311E-1,-1.248047829E0
1.585077100E0,-8.270242214E-1,7.216434479E-1,-1.336034775E0
1.590077100E0,-7.996206284E-1,6.579403877E-1,-1.205097198E0
1.595077100E0,-7.315516472E-1,4.743981361E-1,-9.025373459E-1
1.600077100E0,-5.967280865E-1,2.844777107E-1,-6.094627380E-1
1.605077100E0,-5.398535728E-1,1.315069199E-1,-3.438806534E-1
1.610077100E0,-5.314404964E-1,4.852342606E-2,-2.136878967E-1
1.615077100E0,-5.466690063E-1,1.214742661E-2,-1.548566818E-1
1.620077100E0,-7.138445377E-1,-1.515378952E-1,3.177599907E-1
1.625077100E0,-9.384768009E-1,-3.869204521E-1,4.475774765E-1
1.630077100E0,-1.043906212E0,1.396512985E-2,-1.352720261E-1
1.635077100E0,-9.660918713E-1,3.398909569E-1,-9.864044189E-2
1.640077100E0,-8.961398602E-1,4.171032906E-1,-1.059112549E-1
1.645077100E0,-8.579709530E-1,2.511482239E-1,-2.298917770E-1
1.650077100E0,-7.994301319E-1,1.083979607E-1,-3.724188805E-1
1.655077100E0,-7.006046772E-1,6.609106064E-2,-5.080804825E-1
1.660077100E0,-6.223256588E-1,8.090496063E-2,-6.074328423E-1
1.665077100E0,-5.388355255E-1,7.067632675E-2,-6.645135880E-1
1.670077100E0,-5.203964710E-1,3.625535965E-2,-6.119976044E-1
1.675077100E0,-5.278644562E-1,-9.848594666E-3,-4.726710320E-1
1.680077100E0,-5.685267448E-1,-5.568361282E-2,-2.779064178E-1
1.685077100E0,-5.975511074E-1,-1.192789078E-1,-8.222675323E-2
1.690077100E0,-5.984003544E-1,-1.716256142E-1,1.042628288E-1
1.695077100E0,-6.173009872E-1,-2.234339714E-1,2.807798386E-1
1.700077100E0,-6.158721447E-1,-1.913318634E-1,4.232182503E-1
1.705077100E0,-6.301021576E-1,-1.495327950E-1,4.938335419E-1
1.710077100E0,-5.932941437E-1,-1.122694016E-1,5.353808403E-1
1.715077100E0,-5.456709862E-1,-9.180450439E-2,5.289196968E-1
1.720077100E0,-4.924545288E-1,-9.000778198E-2,4.973521233E-1
1.725077100E0,-4.173281193E-1,-1.156969070E-1,4.887766838E-1
1.730077100E0,-3.362231255E-1,-1.457972527E-1,4.649667740E-1
1.735077100E0,-2.955112457E-1,-1.730952263E-1,4.473662376E-1
1.740077100E0,-2.507746220E-1,-2.026224136E-1,4.309806824E-1
1.745077100E0,-2.501349449E-1,-2.006964684E-1,4.034361839E-1
1.750077100E0,-2.331371307E-1,-1.253991127E-1,2.955079079E-1
1.755077100E0,-2.175450325E-1,-8.205842972E-2,6.684341431E-1
1.760077100E0,-1.248018742E-1,-1.312041283E-1,3.371596336E-1
1.765077100E0,-6.055474281E-2,-1.966781616E-1,3.936014175E-1
1.770077100E0,-4.205107689E-2,-2.342329025E-1,3.389382362E-1
1.775077100E0,-5.203843117E-2,-2.569994926E-1,2.918543816E-1
1.780077100E0,-5.257797241E-2,-2.408123016E-1,2.407674789E-1
1.785077100E0,-1.483798027E-2,-2.161607742E-1,1.312789917E-1
1.790077100E0,-1.129865646E-3,-2.004637718E-1,2.257442474E-2
1.795077100E0,4.332065582E-4,-1.492805481E-1,-7.341432571E-2
1.800077100E0,1.673436165E-2,-1.251125336E-1,-1.337752342E-1
1.805077100E0,1.247930527E-2,-1.051316261E-1,-1.641521454E-1
1.810077100E0,-1.647424698E-2,-1.101255417E-1,-1.895976067E-1
1.815077100E0,-4.816651344E-2,-1.531929970E-1,-2.716178894E-1
1.820077100E0,-7.307267189E-2,-1.324820518E-1,-3.888053894E-1
1.825077100E0,-9.712767601E-2,-6.532335281E-2,-2.912721634E-1
1.830077100E0,-1.260797977E-1,-5.769157410E-2,-1.123371124E-1
1.835077100E0,-1.605296135E-1,-8.889579773E-2,-1.063876152E-1
1.840077100E0,-1.828958988E-1,-1.088018417E-1,-1.044406891E-1
1.845077100E0,-2.056155205E-1,-9.378528595E-2,-1.040749550E-1
1.850077100E0,-2.715523243E-1,-3.390598297E-2,-9.306812286E-2
1.855077100E0,-3.529596329E-1,9.076118469E-2,4.430484772E-2
1.860077100E0,-3.781273365E-1,1.607046127E-1,-9.149408340E-2
1.865077100E0,-4.312772751E-1,2.387986183E-1,-8.764266968E-4
1.870077100E0,-4.938042164E-1,2.663640976E-1,6.159114838E-2
1.875077100E0,-5.808286667E-1,2.841959000E-1,4.632043839E-2
1.880077100E0,-6.984946728E-1,3.001441956E-1,-2.971124649E-2
1.885077100E0,-7.695429325E-1,3.382954597E-1,-1.463937759E-1
1.890077100E0,-7.692701817E-1,3.648600578E-1,-2.191877365E-1
1.895077100E0,-7.314329147E-1,3.956551552E-1,-2.955632210E-1
1.900077100E0,-6.719987392E-1,4.022412300E-1,-3.436489105E-1
1.905077100E0,-6.256344318E-1,3.975358009E-1,-4.240727425E-1
1.910077100E0,-5.631723404E-1,3.687047958E-1,-5.321636200E-1
1.915077100E0,-5.003240108E-1,3.402924538E-1,-6.199026108E-1
1.920077100E0,-4.419345856E-1,2.925682068E-1,-6.876630783E-1
1.925077100E0,-3.928949833E-1,2.560119629E-1,-7.660303116E-1
1.930077100E0,-3.392038345E-1,2.440614700E-1,-7.097558975E-1
1.935077100E0,-2.952301502E-1,2.089786530E-1,-6.105771065E-1
1.940077100E0,-2.269792557E-1,1.555514336E-1,-5.398707390E-1
1.945077100E0,-1.997644901E-1,1.109638214E-1,-5.026907921E-1
1.950077100E0,-1.825513840E-1,5.741071701E-2,-4.692549706E-1
1.955077100E0,-1.687088013E-1,2.055168152E-2,-3.714160919E-1
1.960077100E0,-1.545135975E-1,-1.429462433E-2,-2.840571404E-1
1.965077100E0,-1.850636005E-1,-2.924442291E-2,-1.907320023E-1
1.970077100E0,-2.336592674E-1,-2.663135529E-2,-1.382803917E-1
1.975077100E0,-2.891802788E-1,1.170158386E-3,-1.253328323E-1
1.980077100E0,-3.083922863E-1,5.171203613E-2,-1.208248138E-1
1.985077100E0,-3.317070007E-1,1.120538712E-1,-1.454381943E-1
1.990077100E0,-3.492624760E-1,2.050690651E-1,-1.508622169E-1
1.995077100E0,-3.693375587E-1,2.957401276E-1,-1.712417603E-1
2.000077100E0,-3.811745644E-1,3.717570305E-1,-2.399992943E-1
2.005077100E0,-3.670060635E-1,4.490408897E-1,-3.263754845E-1
2.010077100E0,-3.414282799E-1,4.969811440E-1,-4.326634407E-1
2.015077100E0,-3.138415813E-1,5.440416336E-1,-5.221900940E-1
2.020077100E0,-2.683084011E-1,5.701880455E-1,-4.669055939E-1
2.025077100E0,-2.673876286E-1,5.329985619E-1,-4.541444778E-1
2.030077100E0,-2.939596176E-1,5.325317383E-1,-6.223802567E-1
2.035077100E0,-3.364450932E-1,5.611691475E-1,-6.893458366E-1
2.040077100E0,-3.791882992E-1,6.263151169E-1,-6.089124680E-1
2.045077100E0,-4.342751503E-1,6.681699753E-1,-4.780597687E-1
2.050077100E0,-4.351444244E-1,6.805405617E-1,-3.570084572E-1
2.055077100E0,-3.919227123E-1,6.609249115E-1,-2.252302170E-1
2.060077100E0,-3.701460361E-1,5.984625816E-1,-8.025169373E-2
2.065077100E0,-3.354051113E-1,5.332584381E-1,4.357290268E-2
2.070077100E0,-3.056807518E-1,4.373459816E-1,9.223222733E-2
2.075077100E0,-2.591061592E-1,3.899059296E-1,1.347537041E-1
2.080077100E0,-2.020342350E-1,3.530764580E-1,1.312193871E-1
2.085077100E0,-1.423101425E-1,3.262219429E-1,1.190614700E-1
2.090077100E0,-8.816671371E-2,3.074703217E-1,1.304311752E-1
2.095077100E0,-5.460143089E-2,3.050460815E-1,1.383309364E-1
2.100077100E0,-5.293321609E-2,2.817320824E-1,1.352944374E-1
2.105077100E0,-4.884982109E-2,2.994890213E-1,1.501898766E-1
2.110077100E0,-3.512525558E-2,3.104920387E-1,1.708431244E-1
2.115077100E0,-2.476978302E-2,3.349709511E-1,1.873097420E-1
2.120077100E0,1.112341881E-2,3.557362556E-1,1.685829163E-1
2.125077100E0,6.635951996E-2,3.973307610E-1,1.540298462E-1
2.130077100E0,1.848826408E-1,3.844132423E-1,1.319756508E-1
2.135077100E0,2.912235260E-1,3.305897713E-1,1.363801956E-1
2.140077100E0,3.502938747E-1,2.525234222E-1,1.527667046E-1
2.145077100E0,4.030199051E-1,1.760339737E-1,2.000908852E-1
2.150077100E0,4.301586151E-1,1.141738892E-1,2.694368362E-1
2.155077100E0,4.580135345E-1,7.937335968E-2,2.966909409E-1
2.160077100E0,4.720308781E-1,5.527830124E-2,3.438682556E-1
2.165077100E0,4.665234089E-1,2.823972702E-2,4.074954987E-1
2.170077100E0,4.264178276E-1,-1.530647278E-3,5.145273209E-1
2.175077100E0,3.964004517E-1,-3.427124023E-2,6.029782295E-1
2.180077100E0,3.451879025E-1,-6.871843338E-2,6.595215797E-1
2.185077100E0,2.758588791E-1,-6.233978271E-2,6.578946114E-1
2.190077100E0,2.131447792E-1,-3.513574600E-2,6.352658272E-1
2.195077100E0,1.089296341E-1,1.705932617E-2,6.105384827E-1
2.200077100E0,4.281163216E-2,7.800054550E-2,5.757656097E-1
2.205077100E0,6.424427032E-3,1.328186989E-1,5.657000542E-1
2.210077100E0,-1.826262474E-2,1.629133224E-1,5.210018158E-1
2.215077100E0,-7.472133636E-2,2.236280441E-1,5.169329643E-1
2.220077100E0,-1.439957619E-1,2.570152283E-1,5.670251846E-1
2.225077100E0,-1.972117424E-1,2.750792503E-1,6.771707535E-1
2.230077100E0,-2.339301109E-1,2.603635788E-1,7.971439362E-1
2.235077100E0,-2.146930695E-1,2.222371101E-1,9.104437828E-1
2.240077100E0,-1.618540287E-1,1.665444374E-1,9.703392982E-1
2.245077100E0,-9.945631027E-2,1.267466545E-1,1.000856400E0
2.250077100E0,2.658605576E-3,4.338312149E-2,9.169082642E-1
2.255077100E0,8.739495277E-2,-4.913806915E-3,7.295651436E-1
2.260077100E0,1.924178600E-1,-3.919839859E-2,6.350383759E-1
2.265077100E0,2.737948895E-1,-9.470653534E-2,4.351544380E-1
2.270077100E0,3.797230721E-1,-1.066513062E-1,2.216434479E-1
2.275077100E0,4.219396114E-1,-6.774234772E-2,1.522927284E-1
2.280077100E0,4.741489887E-1,-3.870344162E-2,7.289505005E-2
2.285077100E0,5.033395290E-1,-2.089309692E-2,5.931043625E-2
2.290077100E0,5.401027203E-1,7.285118103E-3,1.769971848E-2
2.295077100E0,5.800831318E-1,1.079607010E-2,4.614877701E-2
2.300077100E0,5.950078964E-1,2.043962479E-2,-8.933067322E-2
2.305077100E0,5.973999500E-1,5.968475342E-2,-2.057170868E-1
2.310077100E0,5.711388588E-1,1.123847961E-1,-2.540726662E-1
2.315077100E0,4.818201065E-1,1.483874321E-1,-3.108301163E-1
2.320077100E0,3.888781071E-1,2.267031670E-1,-3.361206055E-1
2.325077100E0,3.613488674E-1,2.503895760E-1,-2.967967987E-1
2.330077100E0,3.581800461E-1,2.541179657E-1,-3.205075264E-1
2.335077100E0,3.699595928E-1,2.265367508E-1,-3.642163277E-1
2.340077100E0,4.076972008E-1,1.813745499E-1,-3.676819801E-1
2.345077100E0,4.239375591E-1,1.521987915E-1,-3.581199646E-1
2.350077100E0,4.324922562E-1,9.781789780E-2,-3.132209778E-1
2.355077100E0,4.280614853E-1,6.598186493E-2,-2.482261658E-1
2.360077100E0,3.921794891E-1,4.724550247E-2,-1.817183495E-1
2.365077100E0,4.023499489E-1,2.910089493E-2,-1.884212494E-1
2.370077100E0,4.086449146E-1,2.107477188E-2,-2.625951767E-1
2.375077100E0,3.586432934E-1,3.396034241E-2,-3.367948532E-1
2.380077100E0,2.325172424E-1,7.402181625E-2,-3.294706345E-1
2.385077100E0,6.779003143E-2,1.017198563E-1,-2.138595581E-1
2.390077100E0,-3.976011276E-2,1.092629433E-1,-6.886863708E-2
2.395077100E0,-7.594561577E-2,9.129953384E-2,3.404903412E-2
2.400077100E0,-8.051848412E-2,6.179237366E-2,1.039981842E-2
2.405077100E0,-7.408714294E-2,8.049488068E-3,1.705217361E-2
2.410077100E0,-6.728386879E-2,-6.952524185E-2,5.834579468E-3
2.415077100E0,-4.217147827E-2,-1.427440643E-1,-7.387876511E-2
2.420077100E0,-1.659488678E-2,-2.010240555E-1,-1.032695770E-1
2.425077100E0,5.825400352E-2,-2.846860886E-1,-1.590909958E-1
2.430077100E0,1.042292118E-1,-3.299441338E-1,-2.900857925E-1
2.435077100E0,1.321132183E-1,-3.627181053E-1,-4.174375534E-1
2.440077100E0,1.043367386E-1,-3.550286293E-1,-4.749841690E-1
2.445077100E0,4.883885384E-2,-3.301835060E-1,-4.920806885E-1
2.450077100E0,-1.286363602E-2,-3.173336983E-1,-4.196453094E-1
2.455077100E0,-5.975723267E-2,-2.986850739E-1,-2.609300613E-1
2.460077100E0,-1.300847530E-1,-2.595515251E-1,-1.467475891E-1
2.465077100E0,-1.955158710E-1,-2.520709038E-1,-6.400203705E-2
2.470077100E0,-2.298338413E-1,-2.529559135E-1,-2.650165558E-2
2.475077100E0,-2.393133640E-1,-2.890663147E-1,-5.957221985E-2
2.480077100E0,-1.975750923E-1,-3.176789284E-1,-6.663513184E-2
2.485077100E0,-1.145584583E-1,-3.638572693E-1,-5.702590942E-2
2.490077100E0,-7.590222359E-2,-4.209256172E-1,-7.078838348E-2
2.495077100E0,-7.775950432E-2,-4.351282120E-1,2.014255524E-2
2.500077100E0,-9.801077843E-2,-4.773859978E-1,-2.479743958E-2
2.505077100E0,-1.057868004E-1,-5.325584412E-1,6.472969055E-2
2.510077100E0,-2.109215260E-1,-4.668822289E-1,2.855100632E-1
2.515077100E0,-3.226983547E-1,-3.930568695E-1,4.630260468E-1
2.520077100E0,-3.641762733E-1,-3.392190933E-1,5.662927628E-1
2.525077100E0,-3.347370625E-1,-2.870841026E-1,5.990724564E-1
2.530077100E0,-2.721364498E-1,-2.671322823E-1,4.963178635E-1
2.535077100E0,-1.727154255E-1,-2.791080475E-1,3.462810516E-1
2.540077100E0,-7.580637932E-2,-2.698411942E-1,1.860485077E-1
2.545077100E0,4.194903374E-2,-2.738728523E-1,8.682250977E-3
2.550077100E0,1.350839138E-1,-2.134823799E-1,-1.434974670E-1
2.555077100E0,2.549278736E-1,-2.033214569E-1,-3.615303040E-1
2.560077100E0,3.510645628E-1,-1.416106224E-1,-4.406480789E-1
2.565077100E0,4.531449080E-1,-1.221265793E-1,-5.465269089E-1
2.570077100E0,5.599560738E-1,-1.015901566E-1,-6.461520195E-1
2.575077100E0,6.551073790E-1,-1.220679283E-1,-6.482019424E-1
2.580077100E0,6.925135851E-1,-9.250116348E-2,-5.824413300E-1
2.585077100E0,7.900917530E-1,-2.712626457E-1,-5.439825058E-1
2.590077100E0,7.637013197E-1,-1.986732483E-1,-3.901643753E-1
2.595077100E0,8.075877428E-1,-2.822346687E-1,-3.092088699E-1
2.600077100E0,8.452953100E-1,-3.791365623E-1,-2.245435715E-1
2.605077100E0,8.581097126E-1,-4.465746880E-1,-1.165838242E-1
2.610077100E0,8.475393057E-1,-5.089454651E-1,4.700660706E-3
2.615077100E0,8.424383998E-1,-5.777359009E-1,1.132450104E-1
2.620077100E0,8.215560913E-1,-6.025824547E-1,1.671276093E-1
2.625077100E0,7.983363867E-1,-6.138324738E-1,2.061147690E-1
2.630077100E0,7.371592522E-1,-5.813241005E-1,2.456283569E-1
2.635077100E0,6.941102743E-1,-5.670089722E-1,3.131675720E-1
2.640077100E0,6.336895227E-1,-5.581822395E-1,3.703393936E-1
2.645077100E0,5.903797150E-1,-5.746626854E-1,3.905944824E-1
2.650077100E0,5.637388229E-1,-5.817852020E-1,4.128465652E-1
2.655077100E0,5.130996704E-1,-5.647695065E-1,4.290475845E-1
2.660077100E0,4.667114019E-1,-5.535545349E-1,3.807334900E-1
2.665077100E0,4.341666698E-1,-4.916815758E-1,3.389263153E-1
2.670077100E0,3.516135216E-1,-4.271421432E-1,2.848281860E-1
2.675077100E0,2.723875046E-1,-3.539776802E-1,2.766799927E-1
2.680077100E0,2.076771259E-1,-2.850308418E-1,2.421016693E-1
2.685077100E0,1.824935675E-1,-2.358031273E-1,2.482261658E-1
2.690077100E0,1.624869108E-1,-2.053003311E-1,1.696376801E-1
2.695077100E0,1.277732849E-1,-1.942996979E-1,9.728622437E-2
2.700077100E0,1.052185297E-1,-2.091035843E-1,1.220426559E-1
2.705077100E0,1.174712181E-1,-2.264933586E-1,1.271438599E-1
2.710077100E0,1.598460674E-1,-2.559170723E-1,1.231012344E-1
2.715077100E0,2.211016417E-1,-3.128113747E-1,1.357660294E-1
2.720077100E0,3.257144690E-1,-3.996343613E-1,1.298990250E-1
2.725077100E0,3.550578356E-1,-4.081506729E-1,-4.886627197E-3
2.730077100E0,3.428806067E-1,-3.381514549E-1,-7.119178772E-3
2.735077100E0,3.494744301E-1,-2.640347481E-1,1.018934250E-1
2.740077100E0,3.685010672E-1,-2.105588913E-1,1.266479492E-1
2.745077100E0,3.414642811E-1,-1.631531715E-1,1.058998108E-1
2.750077100E0,1.838388443E-1,-1.051163673E-1,2.725982666E-2
2.755077100E0,-3.829360008E-2,-3.398704529E-2,-8.865165710E-2
2.760077100E0,1.879274845E-1,2.442197800E-1,-2.719268799E-1
2.765077100E0,2.228370905E-1,2.199506760E-1,-3.345623016E-1
2.770077100E0,-2.487916946E-1,1.803698540E-1,-2.175445557E-1
2.775077100E0,-6.630879641E-1,2.435007095E-1,-1.408901215E-1
2.780077100E0,-8.689007759E-1,3.155584335E-1,5.283355713E-3
2.785077100E0,-8.009078503E-1,3.323225975E-1,2.850227356E-1
2.790077100E0,-6.495261192E-1,3.608932495E-1,4.989023209E-1
2.795077100E0,-6.340858936E-1,4.897780418E-1,7.889795303E-1
2.800077100E0,-6.799072027E-1,5.892415047E-1,1.091547966E0
2.805077100E0,-7.837331295E-1,6.468195915E-1,1.282272339E0
2.810077100E0,-8.787304163E-1,6.193308830E-1,1.404974937E0
2.815077100E0,-9.295591116E-1,5.409922600E-1,1.454507828E0
2.820077100E0,-8.800725937E-1,4.132528305E-1,1.367028236E0
2.825077100E0,-8.163788319E-1,3.057227135E-1,1.219997406E0
2.830077100E0,-7.534224987E-1,1.961851120E-1,1.042269707E0
2.835077100E0,-6.317805052E-1,6.310939789E-2,8.091459274E-1
2.840077100E0,-4.792610407E-1,-2.950143814E-2,5.581388474E-1
2.845077100E0,-3.196425438E-1,-1.098275185E-1,4.036121368E-1
2.850077100E0,-1.419255733E-1,-1.460709572E-1,2.868080139E-1
2.855077100E0,6.784558296E-3,-1.741580963E-1,1.085224152E-1
2.860077100E0,1.608144045E-1,-1.472101212E-1,-9.101295471E-2
2.865077100E0,2.356073856E-1,-8.110857010E-2,-2.161617279E-1
2.870077100E0,2.874132395E-1,-2.480554581E-2,-2.981367111E-1
2.875077100E0,3.371799588E-1,1.717424393E-2,-3.480176926E-1
2.880077100E0,3.394758105E-1,3.977203369E-2,-3.194427490E-1
2.885077100E0,2.808951139E-1,3.948688507E-2,-2.342386246E-1
2.890077100E0,1.421942711E-1,-5.008220673E-3,-6.077003479E-2
2.895077100E0,-1.264122725E-1,7.634115219E-2,1.108074188E-2
2.900077100E0,-3.326865435E-1,1.334004402E-1,1.886997223E-1
2.905077100E0,-4.636683464E-1,1.551365852E-1,2.460775375E-1
2.910077100E0,-5.162910223E-1,1.570096016E-1,2.620201111E-1
2.915077100E0,-4.946429729E-1,1.673536301E-1,1.532869339E-1
2.920077100E0,-4.579705000E-1,1.634573936E-1,3.404998779E-2
2.925077100E0,-4.494158030E-1,1.743946075E-1,-8.940792084E-2
2.930077100E0,-4.339939356E-1,1.532378197E-1,-1.986341476E-1
2.935077100E0,-4.194173813E-1,1.000843048E-1,-2.695035934E-1
2.940077100E0,-4.658161402E-1,3.079986572E-2,-2.805395126E-1
2.945077100E0,-4.624122381E-1,2.197647095E-2,-3.374166489E-1
2.950077100E0,-4.079591036E-1,-9.893417358E-3,-4.386072159E-1
2.955077100E0,-3.732402325E-1,-5.373001099E-2,-5.379371643E-1
2.960077100E0,-3.319320679E-1,-6.603717804E-2,-6.233797073E-1
2.965077100E0,-2.651294470E-1,-9.585857391E-2,-7.066631317E-1
2.970077100E0,-1.757403612E-1,-9.538602829E-2,-7.203035355E-1
2.975077100E0,-7.029020786E-2,-9.833621979E-2,-7.376575470E-1
2.980077100E0,-6.257772446E-3,-8.901214600E-2,-7.606363297E-1
2.985077100E0,-8.547091484E-2,-3.987026215E-2,-7.062740326E-1
2.990077100E0,-3.570648432E-1,6.405878067E-2,-5.314006805E-1
2.995077100E0,-6.257927418E-1,2.401666641E-1,-2.857341766E-1
3.000077100E0,-8.526585102E-1,3.869438171E-1,-8.159065247E-2
3.005077100E0,-9.681047201E-1,4.010477066E-1,3.198623657E-2
3.010077100E0,-9.676653147E-1,3.025045395E-1,1.315069199E-1
3.015077100E0,-8.619860411E-1,1.852931976E-1,2.290048599E-1
3.020077100E0,-7.099180222E-1,7.943868637E-2,2.184419632E-1
3.025077100E0,-5.767537355E-1,3.268146515E-2,1.903638840E-1
3.030077100E0,-5.213775635E-1,2.176094055E-2,2.475824356E-1
3.035077100E0,-4.494479895E-1,5.345964432E-2,2.238063812E-1
3.040077100E0,-3.445494175E-1,-5.241394043E-3,3.412055969E-2
3.045077100E0,-2.867137194E-1,-2.452182770E-2,-7.389259338E-2
3.050077100E0,-2.455631495E-1,-4.898166656E-2,-2.136220932E-1
3.055077100E0,-2.610863447E-1,-1.280245781E-1,-3.520736694E-1
3.060077100E0,-2.338535786E-1,-2.030034065E-1,-3.230934143E-1
3.065077100E0,-1.485097408E-1,-3.108997345E-1,-1.944217682E-1
3.070077100E0,4.534006119E-3,-4.474358559E-1,-1.446552277E-1
3.075077100E0,-2.156257629E-2,-5.845332146E-1,-2.241649628E-1
3.080077100E0,-2.700028419E-1,-7.124438286E-1,-2.275905609E-1
3.085077100E0,-6.869673729E-2,-8.226423264E-1,-2.012557983E-1
3.090077100E0,9.664636850E-2,-8.931312561E-1,-2.322988510E-1
3.095077100E0,1.244212389E-1,-8.549261093E-1,-2.256116867E-1
3.100077100E0,1.783553958E-1,-7.173738480E-1,-1.548204422E-1
3.105077100E0,1.985768080E-1,-5.807094574E-1,-5.412006378E-2
3.110077100E0,6.603622437E-2,-4.843578339E-1,1.771640778E-2
3.115077100E0,2.834075689E-2,-4.145202637E-1,9.168910980E-2
3.120077100E0,4.437512159E-2,-3.075933456E-1,1.598367691E-1
3.125077100E0,8.257973194E-2,-2.199072838E-1,2.352647781E-1
3.130077100E0,2.894792557E-1,-5.428023338E-1,-3.465843201E-1
3.135077100E0,2.268176079E-1,-6.016349792E-1,-4.785451889E-1
3.140077100E0,-2.985084057E-2,-1.892833710E-1,2.004909515E-1
3.145077100E0,6.482976675E-2,4.163408279E-2,4.560470581E-1
3.150077100E0,1.633623838E-1,2.571239471E-1,3.862476349E-1
3.155077100E0,2.818607092E-1,3.636732101E-1,1.134443283E-1
3.160077100E0,4.105221033E-1,4.062275887E-1,-1.481208801E-1
3.165077100E0,5.108486414E-1,4.164047241E-1,-2.562713623E-1
3.170077100E0,5.747057796E-1,4.665141106E-1,-3.392696381E-1
3.175077100E0,5.815590620E-1,5.426797867E-1,-2.945165634E-1
3.180077100E0,6.198873520E-1,5.974092484E-1,-2.658882141E-1
3.185077100E0,8.079601526E-1,6.872568130E-1,-3.122148514E-1
3.190077100E0,9.143049717E-1,7.050933838E-1,-3.540868759E-1
3.195077100E0,7.840000391E-1,5.222635269E-1,-3.813638687E-1
3.200077100E0,6.342062950E-1,2.921390533E-1,-3.998513222E-1
3.205077100E0,2.285459042E-1,6.229877472E-2,-4.041295052E-1
3.210077100E0,-7.445681095E-2,-9.955930710E-2,-3.883652687E-1
3.215077100E0,-1.379869580E-1,-1.314706802E-1,-3.634395599E-1
3.220077100E0,-1.099649668E-1,-1.019487381E-1,-2.880067825E-1
3.225077100E0,-2.934730053E-2,-7.369565964E-2,-1.746902466E-1
3.230077100E0,2.726906538E-2,-2.723836899E-2,-8.203506470E-2
3.235077100E0,-1.510260701E-1,-4.082679749E-3,5.180454254E-2
3.240077100E0,-4.830203652E-1,5.662965775E-2,2.238960266E-1
3.245077100E0,-7.638124824E-1,1.039996147E-1,4.764060974E-1
3.250077100E0,-8.955491781E-1,1.263647079E-1,6.820182800E-1
3.255077100E0,-1.029610157E0,4.056406021E-2,7.908334732E-1
3.260077100E0,-1.415794611E0,-9.730148315E-2,7.992944717E-1
3.265077100E0,-9.936439991E-1,-9.417343140E-2,7.325620651E-1
3.270077100E0,-2.832107544E-1,-5.111074448E-2,6.978235245E-1
3.275077100E0,1.616814137E-1,-7.227611542E-2,5.474481583E-1
3.280077100E0,1.649801731E-1,-1.020879745E-1,3.019742966E-1
3.285077100E0,2.062237561E-1,-1.211624146E-1,4.961872101E-2
3.290077100E0,4.328626096E-1,-1.578178406E-1,-1.951389313E-1
3.295077100E0,6.171438694E-1,-1.697840691E-1,-3.911323547E-1
3.300077100E0,5.770267844E-1,-1.488204002E-1,-5.676455498E-1
3.305077100E0,5.305942893E-1,-9.406137466E-2,-6.976404190E-1
3.310077100E0,5.556625724E-1,-3.025150299E-2,-7.263975143E-1
3.315077100E0,5.872722864E-1,1.256418228E-2,-6.994609833E-1
3.320077100E0,5.146396756E-1,6.204986572E-2,-6.821327209E-1
3.325077100E0,3.966390789E-1,9.851932526E-2,-6.031436920E-1
3.330077100E0,2.681072056E-1,1.123847961E-1,-4.622640610E-1
3.335077100E0,1.432802677E-1,1.386380196E-1,-2.871313095E-1
3.340077100E0,5.643367767E-3,1.566295624E-1,-1.175937653E-1
3.345077100E0,-1.521869898E-1,1.807627678E-1,5.411338806E-2
3.350077100E0,-3.737294674E-1,2.127833366E-1,2.427415848E-1
3.355077100E0,-5.597205758E-1,2.655439377E-1,4.685735703E-1
3.360077100E0,-6.684437394E-1,2.905826569E-1,6.563529968E-1
3.365077100E0,-6.767473817E-1,3.052363396E-1,7.666778564E-1
3.370077100E0,-6.407823563E-1,2.991399765E-1,7.811956406E-1
3.375077100E0,-5.505779386E-1,2.688498497E-1,7.418813705E-1
3.380077100E0,-4.700837731E-1,2.109165192E-1,6.407079697E-1
3.385077100E0,-3.622388840E-1,1.352372169E-1,5.583705902E-1
3.390077100E0,-2.483409047E-1,5.457401276E-2,4.683980942E-1
3.395077100E0,-1.375313997E-1,-1.155281067E-2,4.099874496E-1
3.400077100E0,-6.961262226E-2,-4.296112061E-2,3.573999405E-1
3.405077100E0,1.217097044E-2,-6.587028503E-2,3.095836639E-1
3.410077100E0,5.456018448E-2,-7.620143890E-2,2.657251358E-1
3.415077100E0,7.300400734E-2,-5.266189575E-2,2.189855576E-1
3.420077100E0,4.944562912E-2,-3.171062469E-2,1.902856827E-1
3.425077100E0,-3.017038107E-2,-9.078025818E-3,1.769638062E-1
3.430077100E0,-9.084838629E-2,-1.551628113E-3,1.494750977E-1
3.435077100E0,-1.370664835E-1,1.338291168E-2,1.554107666E-1
3.440077100E0,-1.620135903E-1,7.432937622E-3,1.863222122E-1
3.445077100E0,-2.274285555E-1,-1.784992218E-2,1.726703644E-1
3.450077100E0,-3.221228123E-1,-3.737926483E-3,1.401500702E-1
3.455077100E0,-4.210742712E-1,1.597213745E-2,2.340679169E-1
3.460077100E0,-4.642635584E-1,1.364707947E-3,2.411727905E-1
3.465077100E0,-5.026525259E-1,-1.485824585E-3,2.352561951E-1
3.470077100E0,-5.481030345E-1,5.890226364E-2,2.745609283E-1
3.475077100E0,-5.923311114E-1,4.489994049E-2,4.703578949E-1
3.480077100E0,-5.662189722E-1,-7.763195038E-2,4.335145950E-1
3.485077100E0,-5.140438080E-1,-7.890415192E-2,2.678117752E-1
3.490077100E0,-7.450639606E-1,-1.823420525E-1,1.296262741E-1
3.495077100E0,-6.286510229E-1,-5.905294418E-2,6.425476074E-2
3.500077100E0,-2.616098523E-1,9.030294418E-2,1.055450439E-1
3.505077100E0,-4.906451702E-2,2.134947777E-1,1.475515366E-1
3.510077100E0,-6.231707335E-2,3.038139343E-1,1.515502930E-1
3.515077100E0,-1.034909487E-1,2.518701553E-1,6.320858002E-2
3.520077100E0,-9.043103456E-2,1.525125504E-1,-9.352397919E-2
3.525077100E0,-6.588494778E-2,5.517959595E-2,-2.285079956E-1
3.530077100E0,-8.936440945E-2,-2.595853806E-2,-3.159513474E-1
3.535077100E0,-1.365951300E-1,-1.994657516E-2,-3.446922302E-1
3.540077100E0,-1.319798231E-1,-5.592536926E-2,-4.248304367E-1
3.545077100E0,-3.557991982E-2,-9.982013702E-2,-5.288343430E-1
3.550077100E0,8.137601614E-2,-1.222281456E-1,-6.463551521E-1
3.555077100E0,2.161894441E-1,-1.004152298E-1,-7.333631516E-1
3.560077100E0,3.540198207E-1,-6.583213806E-2,-7.074337006E-1
3.565077100E0,3.637811542E-1,-5.713367462E-2,-5.894680023E-1
3.570077100E0,2.319227457E-1,-7.433891296E-2,-3.932371140E-1
3.575077100E0,5.542993546E-3,-1.389679909E-1,-1.207695007E-1
3.580077100E0,-2.115146518E-1,-1.673102379E-1,1.275377274E-1
3.585077100E0,-3.098014593E-1,-2.223763466E-1,2.495975494E-1
3.590077100E0,-3.065605760E-1,-2.336893082E-1,3.178014755E-1
3.595077100E0,-2.717583179E-1,-2.169132233E-1,3.360195160E-1
3.600077100E0,-1.549232602E-1,-2.224202156E-1,2.917461395E-1
3.605077100E0,-1.911067963E-2,-2.133340836E-1,2.403316498E-1
3.610077100E0,9.992527962E-2,-2.673344612E-1,1.274080276E-1
3.615077100E0,3.410155773E-1,-2.174921036E-1,1.001358032E-3
3.620077100E0,4.731335342E-1,-2.010908127E-1,-1.970462799E-1
3.625077100E0,5.199247599E-1,-2.286591530E-1,-3.253316879E-1
3.630077100E0,5.023368597E-1,-2.620739937E-1,-3.504819870E-1
3.635077100E0,5.717246532E-1,-3.319034576E-1,-4.665117264E-1
3.640077100E0,6.316530108E-1,-3.475375175E-1,-6.376395226E-1
3.645077100E0,5.565287471E-1,-2.884092331E-1,-7.080087662E-1
3.650077100E0,4.154064059E-1,-1.750826836E-1,-6.812238693E-1
3.655077100E0,3.259229660E-1,-8.305406570E-2,-6.246724129E-1
3.660077100E0,2.787435651E-1,-2.396011353E-2,-5.508770943E-1
3.665077100E0,1.966874003E-1,4.266738892E-3,-4.573879242E-1
3.670077100E0,5.360347033E-2,6.334781647E-2,-3.940191269E-1
3.675077100E0,-7.838356495E-2,1.182966232E-1,-3.273987770E-1
3.680077100E0,-1.857419610E-1,1.570935249E-1,-2.702565193E-1
3.685077100E0,-2.384742498E-1,1.663308144E-1,-2.354807854E-1
3.690077100E0,-3.064450622E-1,1.801757812E-1,-1.842393875E-1
3.695077100E0,-3.577507734E-1,1.798763275E-1,-1.553115845E-1
3.700077100E0,-3.898258209E-1,1.301016808E-1,-1.998124123E-1
3.705077100E0,-5.435613394E-1,2.479887009E-2,-1.962013245E-1
3.710077100E0,-6.319446564E-1,1.659793854E-1,-1.381759644E-1
3.715077100E0,-6.015236378E-1,2.636137009E-1,-1.004509926E-1
3.720077100E0,-5.447356701E-1,3.050837517E-1,-1.001687050E-1
3.725077100E0,-5.289013386E-1,2.797298431E-1,-1.116242409E-1
3.730077100E0,-5.337723494E-1,2.453827858E-1,-1.237034798E-1
3.735077100E0,-5.624088049E-1,2.347989082E-1,-1.836447716E-1
3.740077100E0,-5.027376413E-1,1.811041832E-1,-2.741074562E-1
3.745077100E0,-4.155339003E-1,1.106085777E-1,-2.751832008E-1
3.750077100E0,-3.285366297E-1,5.817270279E-2,-2.236080170E-1
3.755077100E0,-2.434189320E-1,1.003456116E-2,-1.740326881E-1
3.760077100E0,-1.998038292E-1,-1.444768906E-2,-1.182355881E-1
3.765077100E0,-1.791517735E-1,-4.622173309E-2,-4.757308960E-2
3.770077100E0,-1.907143593E-1,-5.919504166E-2,1.932144165E-2
3.775077100E0,-2.004470825E-1,-5.111646652E-2,5.334091187E-2
3.780077100E0,-1.857196093E-1,-4.152631760E-2,4.513263702E-2
3.785077100E0,-1.486713886E-1,-3.357791901E-2,9.049415588E-3
3.790077100E0,-9.862506390E-2,-5.311489105E-3,-2.931833267E-2
3.795077100E0,-5.876421928E-2,-5.378723145E-3,-5.847501755E-2
3.800077100E0,-5.272495747E-2,4.927158356E-3,-6.387090683E-2
3.805077100E0,-3.281354904E-2,3.743171692E-2,-5.448532104E-2
3.810077100E0,-1.701092720E-2,7.056283951E-2,-6.852674484E-2
3.815077100E0,7.097482681E-3,9.463214874E-2,-5.558061600E-2
3.820077100E0,6.619811058E-3,1.076321602E-1,-4.622793198E-2
3.825077100E0,-2.016985416E-2,1.030559540E-1,-2.409458160E-2
3.830077100E0,-1.048924923E-1,1.279091835E-1,7.870006561E-2
3.835077100E0,-1.771935225E-1,1.175756454E-1,2.031488419E-1
3.840077100E0,-1.788291931E-1,5.512142181E-2,3.260903358E-1
3.845077100E0,-9.473073483E-2,1.072835922E-2,4.126734734E-1
3.850077100E0,-3.015160561E-3,-7.424592972E-2,4.756288528E-1
3.855077100E0,9.433221817E-2,-1.115193367E-1,4.732270241E-1
3.860077100E0,1.885449290E-1,-1.614356041E-1,4.611697197E-1
3.865077100E0,2.740388513E-1,-1.925816536E-1,4.180111885E-1
3.870077100E0,3.729555607E-1,-2.209067345E-1,3.850812912E-1
3.875077100E0,4.545614719E-1,-2.527699471E-1,3.426408768E-1
3.880077100E0,4.914705157E-1,-2.179799080E-1,2.981514931E-1
3.885077100E0,5.069365501E-1,-2.056112289E-1,2.549743652E-1
3.890077100E0,5.078597665E-1,-1.962594986E-1,1.957345009E-1
3.895077100E0,5.685980320E-1,-2.307929993E-1,1.074514389E-1
3.900077100E0,5.161341429E-1,-1.445822716E-1,1.019639969E-1
3.905077100E0,4.485583305E-1,-2.134799957E-2,2.215862274E-2
3.910077100E0,4.137178659E-1,5.417776108E-2,-3.441286087E-2
3.915077100E0,3.970156312E-1,8.994102478E-2,-8.206033707E-2
3.920077100E0,4.187164307E-1,1.063280106E-1,-1.625485420E-1
3.925077100E0,4.251557589E-1,1.292033195E-1,-2.086949348E-1
3.930077100E0,4.401044846E-1,1.392951012E-1,-1.994652748E-1
3.935077100E0,4.231604934E-1,1.657800674E-1,-1.611828804E-1
3.940077100E0,4.471317530E-1,1.058411598E-1,-1.601114273E-1
3.945077100E0,3.013206720E-1,1.321244240E-1,-4.486465454E-2
3.950077100E0,6.808567047E-2,2.689070702E-1,8.957481384E-2
3.955077100E0,-1.354984045E-1,3.749737740E-1,2.348303795E-1
3.960077100E0,-2.305988073E-1,4.389476776E-1,3.693618774E-1
3.965077100E0,-2.413775921E-1,4.580411911E-1,4.691414833E-1
3.970077100E0,-2.288595438E-1,4.739851952E-1,5.476002693E-1
3.975077100E0,-1.407124996E-1,4.187045097E-1,4.007511139E-1
3.980077100E0,-9.799695015E-2,4.168882370E-1,2.047019005E-1
3.985077100E0,-1.409502029E-1,4.733014107E-1,1.493911743E-1
3.990077100E0,-1.477638483E-1,4.962615967E-1,1.416492462E-1
3.995077100E0,-1.015197039E-1,4.908347130E-1,1.101107597E-1
4.000077100E0,-5.442321301E-2,4.648213387E-1,1.017017365E-1
4.005077100E0,4.661452770E-2,3.361310959E-1,6.568145752E-2
4.010077100E0,-1.574683189E-2,3.636574745E-1,1.078181267E-1
4.015077100E0,-8.237862587E-2,4.308891296E-1,9.575796127E-2
4.020077100E0,-1.442884207E-1,4.553084373E-1,1.192388535E-1
4.025077100E0,-2.756625414E-1,4.890379906E-1,1.264586449E-1
4.030077100E0,-4.074494839E-1,5.151400566E-1,1.999464035E-1
4.035077100E0,-5.084923506E-1,4.797134399E-1,2.636160851E-1
4.040077100E0,-5.375087261E-1,3.015527725E-1,3.355956078E-1
4.045077100E0,-4.816983938E-1,3.318467140E-1,3.747582436E-1
4.050077100E0,-4.081552029E-1,3.408517838E-1,3.940725327E-1
4.055077100E0,-4.396435022E-1,3.412027359E-1,4.608454704E-1
4.060077100E0,-5.395107269E-1,3.108825684E-1,5.237255096E-1
4.065077100E0,-6.660811901E-1,2.681460381E-1,5.924568176E-1
4.070077100E0,-7.640898228E-1,2.535586357E-1,6.044616699E-1
4.075077100E0,-7.864028215E-1,2.213244438E-1,5.492978096E-1
4.080077100E0,-7.167180777E-1,1.374578476E-1,4.449610710E-1
4.085077100E0,-6.071611643E-1,7.700347900E-2,2.977309227E-1
4.090077100E0,-5.006023645E-1,-2.063131332E-2,1.279659271E-1
4.095077100E0,-3.922365904E-1,-4.055881500E-2,6.564331055E-2
4.100077100E0,-3.118594885E-1,-3.172254562E-2,-4.266595840E-2
4.105077100E0,-2.582559586E-1,-4.508066177E-2,-1.593561172E-1
4.110077100E0,-2.504982948E-1,-7.450008392E-2,-2.610268593E-1
4.115077100E0,-2.725299597E-1,-7.509851456E-2,-3.502082825E-1
4.120077100E0,-2.848891020E-1,-4.257392883E-2,-4.443378448E-1
4.125077100E0,-2.987865210E-1,-1.920557022E-2,-5.196323395E-1
4.130077100E0,-2.780038118E-1,-3.660202026E-3,-5.190486908E-1
4.135077100E0,-2.717452049E-1,-1.690244675E-2,-5.170612335E-1
4.140077100E0,-2.435439825E-1,-5.886602402E-2,-5.171751976E-1
4.145077100E0,-2.069129944E-1,-1.104249954E-1,-5.123939514E-1
4.150077100E0,-2.129209042E-1,-1.442842484E-1,-4.896874428E-1
4.155077100E0,-2.561731339E-1,-1.579065323E-1,-4.160170555E-1
4.160077100E0,-2.901730537E-1,-1.470770836E-1,-3.169875145E-1
4.165077100E0,-3.095980883E-1,-1.353483200E-1,-2.014966011E-1
4.170077100E0,-2.584607601E-1,-1.898713112E-1,-1.471109390E-1
4.175077100E0,-2.113581896E-1,-2.448329926E-1,-1.642026901E-1
4.180077100E0,-1.098706722E-1,-3.101520538E-1,-1.563582420E-1
4.185077100E0,-1.046812534E-2,-3.714537621E-1,-1.414117813E-1
4.190077100E0,9.668409824E-2,-4.451203346E-1,-1.240434647E-1
4.195077100E0,1.947089434E-1,-5.118799210E-1,-1.349935532E-1
4.200077100E0,2.620403767E-1,-5.685138702E-1,-1.598558426E-1
4.205077100E0,3.306241035E-1,-5.985536575E-1,-2.029266357E-1
4.210077100E0,3.786184788E-1,-6.176781654E-1,-2.410097122E-1
4.215077100E0,3.941590786E-1,-5.895285606E-1,-3.144216537E-1
4.220077100E0,3.858363628E-1,-5.269904137E-1,-3.801136017E-1
4.225077100E0,3.530002832E-1,-4.537215233E-1,-4.393687248E-1
4.230077100E0,3.456033468E-1,-3.602023125E-1,-4.719023705E-1
4.235077100E0,3.307778835E-1,-2.818264961E-1,-4.858736992E-1
4.240077100E0,2.989826202E-1,-2.126507759E-1,-4.705672264E-1
4.245077100E0,2.542885542E-1,-1.556549072E-1,-3.765015602E-1
4.250077100E0,4.061969519E-1,-2.827167511E-1,-3.438735008E-1
4.255077100E0,3.481143713E-1,-3.122739792E-1,-6.162309647E-2
4.260077100E0,2.681268454E-1,-1.923112869E-1,5.246067047E-2
4.265077100E0,2.461930513E-1,-1.627225876E-1,1.134386063E-1
4.270077100E0,2.661300898E-1,-2.070536613E-1,1.602282524E-1
4.275077100E0,2.492206097E-1,-1.892647743E-1,1.989688873E-1
4.280077100E0,2.669510841E-1,-1.109981537E-1,2.395229340E-1
4.285077100E0,3.037914038E-1,-7.347822189E-2,2.177963257E-1
4.290077100E0,2.980256081E-1,-2.459192276E-2,1.784276962E-1
4.295077100E0,2.687087059E-1,1.427221298E-2,1.173272133E-1
4.300077100E0,2.516418695E-1,6.131839752E-2,8.093738556E-2
4.305077100E0,2.804741859E-1,1.155867577E-1,3.958272934E-2
4.310077100E0,3.434541225E-1,1.434807777E-1,-3.500175476E-2
4.315077100E0,3.300135136E-1,2.248172760E-1,-2.794504166E-2
4.320077100E0,3.283205032E-1,2.503757477E-1,1.680517197E-2
4.325077100E0,3.320653439E-1,2.576775551E-1,7.840585709E-2
4.330077100E0,3.586198092E-1,2.220377922E-1,5.763101578E-2
4.335077100E0,3.720906973E-1,2.140979767E-1,5.282211304E-2
4.340077100E0,3.147360086E-1,2.063069344E-1,1.066713333E-1
4.345077100E0,2.720967531E-1,2.111577988E-1,1.599569321E-1
4.350077100E0,2.428567410E-1,2.081880569E-1,1.761040688E-1
4.355077100E0,2.146325111E-1,1.933345795E-1,2.110514641E-1
4.360077100E0,-8.824288845E-2,1.251688004E-1,-5.169439316E-2
4.365077100E0,-3.525733948E-3,1.456427574E-1,-2.214865685E-1
4.370077100E0,1.553612947E-1,1.376423836E-1,-1.553983688E-1
4.375077100E0,1.991966963E-1,1.737546921E-1,3.636693954E-2
4.380077100E0,1.675882339E-1,2.103776932E-1,2.621526718E-1
4.385077100E0,8.949291706E-2,2.005686760E-1,4.867343903E-1
4.390077100E0,5.704283714E-3,1.585588455E-1,5.946731567E-1
4.395077100E0,-1.745235920E-2,4.952716827E-2,5.713591576E-1
4.400077100E0,-1.673960686E-2,-2.575302124E-2,4.884967804E-1
4.405077100E0,-3.821313381E-2,-5.661249161E-2,3.125610352E-1
4.410077100E0,-6.872630119E-2,-2.422809601E-2,1.551723480E-1
4.415077100E0,-9.319221973E-2,2.645540237E-2,2.968549728E-2
4.420077100E0,-1.105096340E-1,4.347467422E-2,-5.979728699E-2
4.425077100E0,-7.789945602E-2,1.956415176E-2,-1.521840096E-1
4.430077100E0,-4.055869579E-2,-1.162815094E-2,-2.581849098E-1
4.435077100E0,-1.550734043E-2,-4.703998566E-2,-3.185062408E-1
4.440077100E0,4.408359528E-4,-8.386564255E-2,-3.721222878E-1
4.445077100E0,1.631486416E-2,-1.263909340E-1,-4.384183884E-1
4.450077100E0,3.799104691E-2,-1.708288193E-1,-4.683666229E-1
4.455077100E0,3.931772709E-2,-1.546740532E-1,-4.737625122E-1
4.460077100E0,2.774763107E-2,-1.585969925E-1,-4.653973579E-1
4.465077100E0,-1.470613480E-2,-1.983470917E-1,-5.090527534E-1
4.470077100E0,1.098560095E-1,-4.965853691E-1,-9.240150452E-1
4.475077100E0,3.956687450E-2,-3.534402847E-1,-6.539921761E-1
4.480077100E0,-3.037619591E-2,-1.813912392E-1,-4.073848724E-1
4.485077100E0,-7.960927486E-2,-3.958272934E-2,-2.747168541E-1
4.490077100E0,-6.494450569E-2,3.367424011E-3,-4.169802666E-1
4.495077100E0,1.927781105E-2,-8.322381973E-2,-6.535763741E-1
4.500077100E0,1.223421097E-1,-2.212634087E-1,-8.101301193E-1
4.505077100E0,2.260484695E-1,-3.046326637E-1,-8.005313873E-1
4.510077100E0,2.702312469E-1,-3.219337463E-1,-7.630076408E-1
4.515077100E0,2.562154531E-1,-3.108487129E-1,-7.495927811E-1
4.520077100E0,2.495332956E-1,-2.710633278E-1,-7.384333611E-1
4.525077100E0,2.231605053E-1,-2.252621651E-1,-7.388901711E-1
4.530077100E0,1.759389639E-1,-1.670002937E-1,-7.230963707E-1
4.535077100E0,1.573520899E-1,-1.033043861E-1,-6.595926285E-1
4.540077100E0,7.714867592E-2,-3.470420837E-2,-5.880155563E-1
4.545077100E0,-8.933436871E-2,6.963157654E-2,-4.939851761E-1
4.550077100E0,-1.625843048E-1,8.921957016E-2,-6.502900124E-1
4.555077100E0,-5.017070770E-1,1.512861252E-1,-5.206608772E-1
4.560077100E0,-8.013335466E-1,3.273220062E-1,-3.670597076E-1
4.565077100E0,-9.654277563E-1,5.254039764E-1,-2.048034668E-1
4.570077100E0,-9.474494457E-1,6.116685867E-1,-1.269569397E-1
4.575077100E0,-8.987635374E-1,6.670551300E-1,-9.677648544E-2
4.580077100E0,-8.104618788E-1,6.991987228E-1,-1.080150604E-1
4.585077100E0,-7.049657106E-1,6.685299873E-1,-1.163921356E-1
4.590077100E0,-6.212244034E-1,6.307520866E-1,-1.262817383E-1
4.595077100E0,-5.239540339E-1,5.527210236E-1,-1.227312088E-1
4.600077100E0,-4.129800797E-1,4.586615562E-1,-1.220040321E-1
4.605077100E0,-2.757068872E-1,3.834390640E-1,-1.240549088E-1
4.610077100E0,-1.925289631E-1,3.155055046E-1,-1.198782921E-1
4.615077100E0,-9.999299049E-2,2.767376900E-1,-1.550970078E-1
4.620077100E0,-2.909851074E-2,2.479100227E-1,-1.504726410E-1
4.625077100E0,5.501842499E-2,2.115449905E-1,-1.549358368E-1
4.630077100E0,1.402111053E-1,1.725392342E-1,-1.974458694E-1
4.635077100E0,1.819585562E-1,1.232261658E-1,-1.699171066E-1
4.640077100E0,2.005682588E-1,6.193780899E-2,-4.376220703E-2
4.645077100E0,2.042035460E-1,-3.311014175E-2,1.542682648E-1
4.650077100E0,1.732826829E-1,-1.204695702E-1,3.928442001E-1
4.655077100E0,7.867348194E-2,-1.891727448E-1,6.707687378E-1
4.660077100E0,-4.513168335E-2,-2.184715271E-1,9.322080612E-1
4.665077100E0,-1.451814175E-1,-2.583565712E-1,1.171414375E0
4.670077100E0,-2.358602285E-1,-2.895627022E-1,1.366065979E0
4.675077100E0,-2.564247847E-1,-3.121004105E-1,1.389694214E0
4.680077100E0,-3.123843670E-1,-3.094892502E-1,1.401401520E0
4.685077100E0,-4.088388681E-1,-2.546758652E-1,1.495219231E0
4.690077100E0,-4.150128365E-1,-1.804471016E-1,1.537166595E0
4.695077100E0,-3.843510151E-1,-8.508396149E-2,1.459714890E0
4.700077100E0,-3.582999706E-1,-3.085231781E-2,1.363121986E0
4.705077100E0,-3.374214172E-1,3.208160400E-3,1.252095222E0
4.710077100E0,-2.732788324E-1,-1.402616501E-2,1.101524353E0
4.715077100E0,-2.066800594E-1,-5.485534668E-2,1.024773598E0
4.720077100E0,-1.061151028E-1,-1.129417419E-1,9.268951416E-1
4.725077100E0,9.075403214E-3,-2.011737823E-1,8.486871719E-1
4.730077100E0,1.256420612E-1,-2.738537788E-1,8.118486404E-1
4.735077100E0,2.468359470E-1,-3.382592201E-1,7.666578293E-1
4.740077100E0,3.600233793E-1,-4.084911346E-1,7.537059784E-1
4.745077100E0,4.652792215E-1,-4.700727463E-1,6.758365631E-1
4.750077100E0,5.127753615E-1,-5.032858849E-1,6.044483185E-1
4.755077100E0,5.478603840E-1,-5.299563408E-1,5.136651993E-1
4.760077100E0,5.787026882E-1,-5.452890396E-1,4.549703598E-1
4.765077100E0,5.581053495E-1,-5.026016235E-1,4.038324356E-1
4.770077100E0,5.299580097E-1,-4.269742966E-1,3.518114090E-1
4.775077100E0,4.912813902E-1,-3.439168930E-1,3.091955185E-1
4.780077100E0,4.359381199E-1,-2.553815842E-1,2.533454895E-1
4.785077100E0,2.922619581E-1,-1.721482277E-1,2.087574005E-1
4.790077100E0,8.608973026E-2,-5.989408493E-2,1.964740753E-1
4.795077100E0,-7.541573048E-2,5.823421478E-2,1.747369766E-1
4.800077100E0,-1.728476286E-1,1.011652946E-1,1.521215439E-1
4.805077100E0,-2.447754145E-1,1.231651306E-1,1.152200699E-1
4.810077100E0,-3.412678242E-1,2.338256836E-1,1.013736725E-1
4.815077100E0,-4.066932201E-1,3.004193306E-1,8.136081696E-2
4.820077100E0,-3.837714195E-1,3.588624001E-1,8.558368683E-2
4.825077100E0,-2.969205379E-1,3.808860779E-1,6.968021393E-2
4.830077100E0,-1.648682356E-1,3.487677574E-1,1.628875732E-3
4.835077100E0,-4.006576538E-2,2.686529160E-1,-9.101581573E-2
4.840077100E0,8.266043663E-2,1.967201233E-1,-1.813678741E-1
4.845077100E0,1.577579975E-1,8.643293381E-2,-2.391319275E-1
4.850077100E0,2.420330048E-1,1.623964310E-2,-2.729310989E-1
4.855077100E0,2.982876301E-1,-5.068922043E-2,-2.933092117E-1
4.860077100E0,3.356632590E-1,-6.889677048E-2,-2.907466888E-1
4.865077100E0,3.607985973E-1,-9.594202042E-2,-2.826080322E-1
4.870077100E0,3.630521297E-1,-1.064319611E-1,-2.513637543E-1
4.875077100E0,3.276336193E-1,-1.036181450E-1,-1.987657547E-1
4.880077100E0,2.857652903E-1,-1.128072739E-1,-1.607398987E-1
4.885077100E0,2.452999353E-1,-1.348648071E-1,-1.744422913E-1
4.890077100E0,1.493974924E-1,-6.926202774E-2,-1.324357986E-1
4.895077100E0,1.050758362E-1,-1.242446899E-2,-9.369087219E-2
4.900077100E0,1.088159084E-1,5.060863495E-2,-5.461597443E-2
4.905077100E0,1.111119986E-1,7.847070694E-2,-5.800342560E-2
4.910077100E0,1.138004065E-1,1.070084572E-1,-5.471420288E-2
4.915077100E0,5.870676041E-2,1.151990891E-1,-7.786560059E-2
4.920077100E0,-1.423847675E-1,1.355566978E-1,6.453514099E-3
4.925077100E0,-2.819702625E-1,1.852960587E-1,1.294393539E-1
4.930077100E0,-2.768694162E-1,1.953454018E-1,1.336765289E-1
4.935077100E0,-2.632422447E-1,2.201499939E-1,1.516342163E-1
4.940077100E0,-2.196886539E-1,2.066655159E-1,2.025642395E-1
4.945077100E0,-1.221542358E-1,2.341251373E-1,2.083358765E-1
4.950077100E0,-5.750811100E-2,2.177739143E-1,1.773824692E-1
4.955077100E0,7.840633392E-3,1.435513496E-1,1.603069305E-1
4.960077100E0,1.103966236E-1,3.499794006E-2,1.193256378E-1
4.965077100E0,1.822718382E-1,-6.209659576E-2,4.770374298E-2
4.970077100E0,2.257127762E-1,-1.015138626E-1,-2.492332458E-2
4.975077100E0,2.765145302E-1,-1.047792435E-1,-7.273578644E-2
4.980077100E0,3.267630339E-1,-1.023488045E-1,-1.575698853E-1
4.985077100E0,4.079632759E-1,-1.750402451E-1,-2.916774750E-1
4.990077100E0,4.198557734E-1,-2.089533806E-1,-3.044691086E-1
4.995077100E0,3.663977385E-1,-2.043180466E-1,-2.297325134E-1
5.000077100E0,3.868181705E-1,-1.950783730E-1,-1.335649490E-1
5.005077100E0,3.624793291E-1,-1.267247200E-1,-4.983425140E-2
5.010077100E0,3.070980310E-1,-3.645563126E-2,4.117393494E-2
5.015077100E0,2.383254766E-1,2.659320831E-2,1.340970993E-1
5.020077100E0,1.831374168E-1,4.592275620E-2,2.110042572E-1
5.025077100E0,1.549469233E-1,1.497793198E-2,2.728137970E-1
5.030077100E0,1.227015257E-1,-1.341772079E-2,3.264055252E-1
5.035077100E0,7.233500481E-2,-3.846359253E-2,3.642520905E-1
5.040077100E0,-2.331495285E-2,-2.370929718E-2,4.095306396E-1
5.045077100E0,-1.235381365E-1,2.564859390E-2,4.685459137E-1
5.050077100E0,-1.567045450E-1,9.327459335E-2,5.078344345E-1
5.055077100E0,-1.706317663E-1,1.246800423E-1,5.305233002E-1
5.060077100E0,-1.631531715E-1,1.410636902E-1,5.415039062E-1
5.065077100E0,-1.757760048E-1,1.335630417E-1,5.410585403E-1
5.070077100E0,-2.332375050E-1,1.233296394E-1,5.073089600E-1
5.075077100E0,-2.618937492E-1,1.249451637E-1,4.979829788E-1
5.080077100E0,-2.621239424E-1,1.275033951E-1,4.701843262E-1
5.085077100E0,-2.294951677E-1,1.384406090E-1,4.619560242E-1
5.090077100E0,-1.860452890E-1,1.453795433E-1,4.354324341E-1
5.095077100E0,-1.595627069E-1,1.372513771E-1,4.077243805E-1
5.100077100E0,-1.238361597E-1,1.280336380E-1,3.689794540E-1
5.105077100E0,-7.359004021E-2,9.244203568E-2,3.386535645E-1
5.110077100E0,4.129528999E-3,4.313755035E-2,3.038787842E-1
5.115077100E0,4.986810684E-2,-1.080226898E-2,2.678937912E-1
5.120077100E0,7.759237289E-2,-5.350208282E-2,2.731304169E-1
5.125077100E0,8.879137039E-2,-7.600784302E-2,2.818107605E-1
5.130077100E0,8.057582378E-2,-1.083498001E-1,2.604789734E-1
5.135077100E0,4.100108147E-2,-1.346859932E-1,2.574710846E-1
5.140077100E0,5.303621292E-4,-1.522226334E-1,2.449979782E-1
5.145077100E0,-2.032160759E-2,-1.646566391E-1,2.419090271E-1
5.150077100E0,7.591128349E-3,-1.777625084E-1,1.996097565E-1
5.155077100E0,2.093338966E-2,-1.812400818E-1,1.325197220E-1
5.160077100E0,9.562969208E-3,-1.859836578E-1,9.439468384E-2
5.165077100E0,1.409971714E-2,-1.622223854E-1,4.047393799E-3
5.170077100E0,4.016506672E-2,-1.481471062E-1,-7.730865479E-2
5.175077100E0,7.064628601E-2,-1.403951645E-1,-1.507825851E-1
5.180077100E0,1.059027910E-1,-1.335706711E-1,-2.156038284E-1
5.185077100E0,9.374988079E-2,-1.228470802E-1,-2.358274460E-1
5.190077100E0,6.265795231E-2,-1.038432121E-1,-2.230062485E-1
5.195077100E0,5.000627041E-2,-1.003170013E-1,-2.070846558E-1
5.200077100E0,6.081414223E-2,-9.988212585E-2,-1.761455536E-1
5.205077100E0,6.853854656E-2,-1.214818954E-1,-1.439514160E-1
5.210077100E0,5.927419662E-2,-1.251196861E-1,-1.211557388E-1
5.215077100E0,6.666111946E-2,-1.627545357E-1,-1.525936127E-1
5.220077100E0,6.861245632E-2,-1.843900681E-1,-1.511926651E-1
5.225077100E0,7.894122601E-2,-2.207345963E-1,-1.371860504E-1
5.230077100E0,7.587516308E-2,-2.307963371E-1,-1.397209167E-1
5.235077100E0,9.312474728E-2,-2.366633415E-1,-1.505517960E-1
5.240077100E0,9.535837173E-2,-2.513546944E-1,-2.020616531E-1
5.245077100E0,1.106830835E-1,-2.548041344E-1,-2.329635620E-1
5.250077100E0,1.087889671E-1,-2.607703209E-1,-2.764110565E-1
5.255077100E0,1.107163429E-1,-2.491226196E-1,-2.907905579E-1
5.260077100E0,1.140908003E-1,-2.328810692E-1,-2.729263306E-1
5.265077100E0,1.027370691E-1,-2.072300911E-1,-2.106437683E-1
5.270077100E0,9.978246689E-2,-1.961398125E-1,-1.805696487E-1
5.275077100E0,1.069347858E-1,-1.762366295E-1,-1.778564453E-1
5.280077100E0,9.042453766E-2,-1.388721466E-1,-1.803770065E-1
5.285077100E0,4.962682724E-2,-9.274482727E-2,-1.499414444E-1
5.290077100E0,9.017586708E-3,-5.933141708E-2,-1.076211929E-1
5.295077100E0,3.117799759E-3,-3.357791901E-2,-6.225585938E-2
5.300077100E0,2.315044403E-4,-4.337310791E-3,-3.091335297E-2
5.305077100E0,2.413606644E-2,-9.023666382E-3,3.075599670E-3
5.310077100E0,3.863155842E-2,-1.921129227E-2,2.068138123E-2
5.315077100E0,6.158268452E-2,-2.437973022E-2,1.586055756E-2
5.320077100E0,6.293034554E-2,8.773803711E-5,1.858043671E-2
5.325077100E0,5.335295200E-2,2.325963974E-2,3.016757965E-2
5.330077100E0,3.540790081E-2,4.800367355E-2,2.878665924E-2
5.335077100E0,3.399527073E-2,7.273244858E-2,5.234718323E-2
5.340077100E0,3.170764446E-2,7.181549072E-2,6.658267975E-2
5.345077100E0,3.316485882E-2,7.107543945E-2,6.020259857E-2
5.350077100E0,1.388072968E-2,9.411811829E-2,3.201770782E-2
5.355077100E0,-6.365585327E-2,1.424112320E-1,2.134513855E-2
5.360077100E0,-1.644448042E-1,2.161860466E-1,8.020114899E-2
5.365077100E0,-2.107869387E-1,2.704572678E-1,1.806879044E-1
5.370077100E0,-2.068127394E-1,2.765927315E-1,2.841606140E-1
5.375077100E0,-2.026649714E-1,2.708301544E-1,3.629331589E-1
5.380077100E0,-1.973408461E-1,2.555603981E-1,4.053297043E-1
5.385077100E0,-1.446681023E-1,2.213745117E-1,4.144048691E-1
5.390077100E0,-1.285209656E-1,1.830630302E-1,4.156198502E-1
5.395077100E0,-8.191490173E-2,1.427383423E-1,4.047937393E-1
5.400077100E0,-4.698050022E-2,1.189141273E-1,3.636808395E-1
5.405077100E0,-1.570224762E-2,9.669780731E-2,3.083095551E-1
5.410077100E0,-5.385518074E-3,9.054279327E-2,2.858076096E-1
5.415077100E0,-4.923224449E-2,1.033196449E-1,2.829103470E-1
5.420077100E0,-6.989371777E-2,1.150231361E-1,2.774782181E-1
5.425077100E0,-7.547020912E-2,1.205158234E-1,2.444076538E-1
5.430077100E0,-7.458889484E-2,1.183609962E-1,1.840686798E-1
5.435077100E0,-7.836902142E-2,8.648729324E-2,1.137228012E-1
5.440077100E0,-8.387815952E-2,7.163238525E-2,2.987861633E-2
5.445077100E0,-7.320713997E-2,5.995416641E-2,-4.729938507E-2
5.450077100E0,-6.632602215E-2,4.336214066E-2,-1.005373001E-1
5.455077100E0,-4.397463799E-2,4.552984238E-2,-1.913633347E-1
5.460077100E0,-3.055810928E-3,2.951622009E-2,-2.705888748E-1
5.465077100E0,2.484965324E-2,2.081441879E-2,-3.444552422E-1
5.470077100E0,2.167475224E-2,1.071834564E-2,-3.755407333E-1
5.475077100E0,-7.898807526E-4,1.155567169E-2,-3.677434921E-1
5.480077100E0,-4.976952076E-2,3.558158875E-3,-3.203682899E-1
5.485077100E0,-1.001994610E-1,1.482486725E-3,-2.500314713E-1
5.490077100E0,-1.043905020E-1,-8.427143097E-3,-1.810779572E-1
5.495077100E0,-9.190058708E-2,-1.445102692E-2,-1.739645004E-1
5.500077100E0,-7.274234295E-2,-3.718423843E-2,-1.429004669E-1
5.505077100E0,-6.188285351E-2,-6.904268265E-2,-1.503105164E-1
5.510077100E0,-4.153215885E-2,-1.248631477E-1,-1.572780609E-1
5.515077100E0,-9.273052216E-3,-1.755228043E-1,-1.877574921E-1
5.520077100E0,8.868336678E-3,-2.043566704E-1,-2.279577255E-1
5.525077100E0,1.489865780E-2,-2.112603188E-1,-2.615680695E-1
5.530077100E0,2.930903435E-2,-2.040348053E-1,-2.802257538E-1
5.535077100E0,3.187716007E-2,-1.998043060E-1,-2.986106873E-1
5.540077100E0,5.011677742E-2,-1.985569000E-1,-3.202381134E-1
5.545077100E0,7.395029068E-2,-1.836204529E-1,-3.386893272E-1
5.550077100E0,9.942352772E-2,-1.840400696E-1,-3.800044060E-1
5.555077100E0,1.430618763E-1,-1.749243736E-1,-4.252710342E-1
5.560077100E0,1.487811804E-1,-1.659193039E-1,-4.652767181E-1
5.565077100E0,1.648802757E-1,-1.576504707E-1,-4.784994125E-1
5.570077100E0,1.822392941E-1,-1.233716011E-1,-5.017986298E-1
5.575077100E0,2.078790665E-1,-7.335186005E-2,-5.060987473E-1
5.580077100E0,2.300006151E-1,-4.765796661E-2,-5.092620850E-1
5.585077100E0,2.415866852E-1,-4.389286041E-3,-5.221405029E-1
5.590077100E0,2.350407839E-1,3.178834915E-2,-5.100774765E-1
5.595077100E0,2.736121416E-1,5.928659439E-2,-4.826993942E-1
5.600077100E0,3.286969662E-1,5.959033966E-2,-5.357751846E-1
5.605077100E0,2.938781977E-1,7.006454468E-2,-4.766979218E-1
5.610077100E0,2.336397171E-1,7.677030563E-2,-3.505582809E-1
5.615077100E0,1.862483025E-1,7.081794739E-2,-2.631969452E-1
5.620077100E0,6.321573257E-2,8.635616302E-2,-1.494083405E-1
5.625077100E0,-5.271351337E-2,1.563158035E-1,-4.206371307E-2
5.630077100E0,-1.371569633E-1,1.893434525E-1,6.621360779E-2
5.635077100E0,-1.570699215E-1,2.363858223E-1,1.658773422E-1
5.640077100E0,-1.302174330E-1,2.381944656E-1,2.091321945E-1
5.645077100E0,-1.209918261E-1,1.835851669E-1,1.958551407E-1
5.650077100E0,-7.673144341E-2,1.571149826E-1,1.353807449E-1
5.655077100E0,-1.483440399E-3,1.359543800E-1,-1.371965408E-1
5.660077100E0,8.772993088E-2,1.926226616E-1,-3.509907722E-1
5.665077100E0,2.246117592E-2,2.648582458E-1,-2.252349854E-1
5.670077100E0,1.499009132E-2,2.514457703E-1,-1.798992157E-1
5.675077100E0,1.306605339E-2,2.528467178E-1,-1.986951828E-1
5.680077100E0,2.669000626E-2,2.468352318E-1,-1.829729080E-1
5.685077100E0,6.555294991E-2,2.038435936E-1,-2.246675491E-1
5.690077100E0,5.805706978E-2,1.954517365E-1,-1.740541458E-1
5.695077100E0,2.542543411E-2,1.822533607E-1,-7.662391663E-2
5.700077100E0,-4.550218582E-3,1.753172874E-1,-1.253700256E-2
5.705077100E0,-3.906488419E-2,1.770915985E-1,6.275844574E-2
5.710077100E0,-4.687929153E-2,1.652617455E-1,7.743644714E-2
5.715077100E0,-5.404376984E-2,1.398286819E-1,9.315109253E-2
5.720077100E0,-7.676839828E-2,1.358079910E-1,1.335268021E-1
5.725077100E0,-1.278843880E-1,1.144804955E-1,2.298574448E-1
5.730077100E0,-1.780731678E-1,1.083960533E-1,2.943277359E-1
5.735077100E0,-2.022106647E-1,9.492015839E-2,3.554716110E-1
5.740077100E0,-1.643254757E-1,5.086898804E-2,3.641538620E-1
5.745077100E0,-1.430618763E-1,3.255367279E-2,3.159608841E-1
5.750077100E0,-1.337194443E-1,1.936483383E-2,2.967376709E-1
5.755077100E0,-9.911465645E-2,-3.773212433E-3,3.028917313E-1
5.760077100E0,-5.145597458E-2,-3.212165833E-2,3.274078369E-1
5.765077100E0,-2.213072777E-2,-7.497835159E-2,3.479423523E-1
5.770077100E0,2.200198174E-2,-1.330389977E-1,3.398437500E-1
5.775077100E0,4.722023010E-2,-1.691112518E-1,3.395977020E-1
5.780077100E0,7.970046997E-2,-2.068247795E-1,3.355875015E-1
5.785077100E0,1.385250092E-1,-2.210063934E-1,3.105087280E-1
5.790077100E0,1.604311466E-1,-2.225570679E-1,2.546510696E-1
5.795077100E0,1.755560637E-1,-2.062039375E-1,2.182664871E-1
5.800077100E0,1.817028522E-1,-1.694498062E-1,2.203664780E-1
5.805077100E0,1.555236578E-1,-1.424469948E-1,2.603998184E-1
5.810077100E0,1.178050041E-1,-9.381532669E-2,3.278970718E-1
5.815077100E0,5.766558647E-2,-7.302904129E-2,4.224824905E-1
5.820077100E0,5.655765533E-3,-5.009603500E-2,4.827423096E-1
5.825077100E0,-1.685810089E-2,-5.343484879E-2,5.144987106E-1
5.830077100E0,1.203608513E-2,-5.808115005E-2,4.789924622E-1
5.835077100E0,3.438210487E-2,-3.917360306E-2,4.017105103E-1
5.840077100E0,6.291937828E-2,-4.731035233E-2,2.858037949E-1
5.845077100E0,1.191203594E-1,-3.277873993E-2,1.779022217E-1
5.850077100E0,1.853563786E-1,-1.084709167E-2,4.179954529E-2
5.855077100E0,2.540520430E-1,-7.792949677E-3,-1.028089523E-1
5.860077100E0,3.007173538E-1,2.134990692E-2,-2.229013443E-1
5.865077100E0,3.255007267E-1,5.285692215E-2,-3.314323425E-1
5.870077100E0,3.497252464E-1,6.736898422E-2,-3.954696655E-1
5.875077100E0,3.379403353E-1,9.580135345E-2,-4.389476776E-1
5.880077100E0,3.319234848E-1,1.025166512E-1,-4.544687271E-1
5.885077100E0,3.177022934E-1,1.258807182E-1,-4.518718719E-1
5.890077100E0,2.886698246E-1,1.306176186E-1,-4.251890182E-1
5.895077100E0,2.614955902E-1,1.509556770E-1,-3.392992020E-1
5.900077100E0,2.270627022E-1,1.451721191E-1,-2.577953339E-1
5.905077100E0,2.283442020E-1,1.307625771E-1,-2.020025253E-1
5.910077100E0,2.166794538E-1,1.155781746E-1,-1.421546936E-1
5.915077100E0,2.268779278E-1,8.018732071E-2,-1.121139526E-1
5.920077100E0,2.036733627E-1,5.678510666E-2,-6.319904327E-2
5.925077100E0,1.578936577E-1,6.161355972E-2,2.341365814E-2
5.930077100E0,1.427044868E-1,3.049898148E-2,2.890872955E-2
5.935077100E0,1.344568729E-1,4.630517960E-2,4.033565521E-2
5.940077100E0,1.447303295E-1,5.700445175E-2,1.936912537E-3
5.945077100E0,6.772470474E-2,1.074957848E-1,2.984809875E-2
5.950077100E0,3.566861153E-2,1.502623558E-1,5.790805817E-2
5.955077100E0,7.137775421E-3,1.705241203E-1,1.017913818E-1
5.960077100E0,5.709409714E-3,1.742081642E-1,1.298255920E-1
5.965077100E0,2.287387848E-3,1.789774895E-1,1.258888245E-1
5.970077100E0,1.854610443E-2,1.785707474E-1,1.189155579E-1
5.975077100E0,5.272030830E-2,1.877026558E-1,1.007509232E-1
5.980077100E0,2.875280380E-2,2.088756561E-1,1.253156662E-1
5.985077100E0,2.121424675E-2,2.260732651E-1,1.246786118E-1
5.990077100E0,-4.444432259E-2,2.220816612E-1,1.676025391E-1
5.995077100E0,-1.228661537E-1,2.391114235E-1,2.350730896E-1
6.000077100E0,-1.795330048E-1,2.639474869E-1,2.943572998E-1
6.005077100E0,-1.937296391E-1,2.648811340E-1,3.613338470E-1
6.010077100E0,-2.286643982E-1,2.596955299E-1,4.681482315E-1
6.015077100E0,-2.458934784E-1,2.337923050E-1,5.229482651E-1
6.020077100E0,-2.569172382E-1,1.878595352E-1,5.600986481E-1
6.025077100E0,-2.537150383E-1,1.619477272E-1,5.551280975E-1
6.030077100E0,-2.554612160E-1,1.225862503E-1,5.532159805E-1
6.035077100E0,-2.407636642E-1,9.996318817E-2,5.367355347E-1
6.040077100E0,-2.395153046E-1,7.368230820E-2,5.174827576E-1
6.045077100E0,-2.287631035E-1,4.707908630E-2,5.151100159E-1
6.050077100E0,-2.410914898E-1,5.386352539E-3,4.951906204E-1
6.055077100E0,-2.556710243E-1,-2.969121933E-2,4.425582886E-1
6.060077100E0,-2.439603806E-1,-8.323478699E-2,4.007196426E-1
6.065077100E0,-2.376117706E-1,-1.200017929E-1,3.537282944E-1
6.070077100E0,-2.062063217E-1,-1.395568848E-1,2.965784073E-1
6.075077100E0,-1.860508919E-1,-1.665730476E-1,2.272529602E-1
6.080077100E0,-1.863842010E-1,-1.970987320E-1,1.429061890E-1
6.085077100E0,-2.273018360E-1,-1.826014519E-1,7.474136353E-2
6.090077100E0,-2.744462490E-1,-1.770052910E-1,3.708839417E-2
6.095077100E0,-2.691862583E-1,-1.746077538E-1,-7.600784302E-3
6.100077100E0,-2.485058308E-1,-1.783738136E-1,-8.053398132E-2
6.105077100E0,-2.062137127E-1,-1.861724854E-1,-1.777830124E-1
6.110077100E0,-1.720974445E-1,-1.997213364E-1,-3.048896790E-1
6.115077100E0,-1.701054573E-1,-1.910495758E-1,-4.458284378E-1
6.120077100E0,-1.623208523E-1,-1.848988533E-1,-5.307903290E-1
6.125077100E0,-1.237642765E-1,-1.902132034E-1,-5.620117188E-1
6.130077100E0,-6.423163414E-2,-2.074680328E-1,-5.856475830E-1
6.135077100E0,-7.735252380E-3,-2.316169739E-1,-6.096467972E-1
6.140077100E0,6.318068504E-2,-2.511124611E-1,-6.231050491E-1
6.145077100E0,1.020901203E-1,-2.660155296E-1,-5.905599594E-1
6.150077100E0,1.122229099E-1,-3.016986847E-1,-5.935802460E-1
6.155077100E0,1.108341217E-1,-3.215198517E-1,-5.705747604E-1
6.160077100E0,1.008331776E-1,-3.326120377E-1,-5.560083389E-1
6.165077100E0,7.456707954E-2,-3.149414062E-1,-5.457935333E-1
6.170077100E0,4.285645485E-2,-2.835631371E-1,-5.354337692E-1
6.175077100E0,1.353979111E-3,-2.364840508E-1,-4.993076324E-1
6.180077100E0,-4.380512238E-2,-1.678233147E-1,-4.470834732E-1
6.185077100E0,-6.315755844E-2,-1.289916039E-1,-4.722776413E-1
6.190077100E0,-1.096818447E-1,-7.442331314E-2,-4.535503387E-1
6.195077100E0,-1.381924152E-1,-4.700183868E-2,-4.393463135E-1
6.200077100E0,-1.282541752E-1,-3.973817825E-2,-4.024524689E-1
6.205077100E0,-9.815740585E-2,-2.089500427E-2,-3.857097626E-1
6.210077100E0,-8.329534531E-2,-8.424758911E-3,-3.365068436E-1
6.215077100E0,-1.102993488E-1,1.951932907E-2,-2.566041946E-1
6.220077100E0,-1.454110146E-1,4.442358017E-2,-1.247177124E-1
6.225077100E0,-1.563217640E-1,8.741211891E-2,2.320957184E-2
6.230077100E0,-1.695158482E-1,8.513212204E-2,1.564817429E-1
6.235077100E0,-1.926901340E-1,8.444380760E-2,2.645044327E-1
6.240077100E0,-2.075524330E-1,8.353066444E-2,3.578424454E-1
6.245077100E0,-2.130210400E-1,7.779407501E-2,4.271669388E-1
6.250077100E0,-2.010390759E-1,7.495069504E-2,4.465103149E-1
6.255077100E0,-1.716904640E-1,9.841227531E-2,4.057264328E-1
6.260077100E0,-1.647257805E-1,1.161358356E-1,3.253116608E-1
6.265077100E0,-1.456513405E-1,1.507263184E-1,2.163066864E-1
6.270077100E0,-1.263668537E-1,1.964099407E-1,1.693515778E-1
6.275077100E0,-1.196253300E-1,2.207651138E-1,1.668376923E-1
6.280077100E0,-1.091396809E-1,1.893286705E-1,2.410707474E-1
6.285077100E0,-9.481835365E-2,1.315715313E-1,3.225460052E-1
6.290077100E0,-8.194708824E-2,7.745552063E-2,4.118499756E-1
6.295077100E0,-5.266141891E-2,4.944729805E-2,4.840612411E-1
6.300077100E0,-8.466243744E-4,1.996183395E-2,5.461177826E-1
6.305077100E0,5.373668671E-2,1.355838776E-2,5.508003235E-1
6.310077100E0,7.958364487E-2,7.177352905E-3,5.102043152E-1
6.315077100E0,8.466529846E-2,5.141735077E-3,4.616947174E-1
6.320077100E0,9.185039997E-2,9.820461273E-3,4.619054794E-1
6.325077100E0,1.043040752E-1,2.107429504E-2,5.056772232E-1
6.330077100E0,2.530661821E-1,-2.162492275E-1,1.010741234E0
6.335077100E0,1.345020533E-1,-1.936604977E-1,9.674329758E-1
6.340077100E0,2.754914761E-2,-1.071834564E-1,8.441553116E-1
6.345077100E0,-3.832507133E-2,-9.790086746E-2,8.695392609E-1
6.350077100E0,-1.053224802E-1,1.901817322E-2,7.303199768E-1
6.355077100E0,-8.979499340E-2,1.797542572E-1,4.934120178E-1
6.360077100E0,-2.299642563E-2,2.755877972E-1,3.391895294E-1
6.365077100E0,3.724372387E-2,2.519788742E-1,2.748193741E-1
6.370077100E0,6.237697601E-2,1.816020012E-1,2.257947922E-1
6.375077100E0,9.258210659E-2,1.158697605E-1,1.733627319E-1
6.380077100E0,1.161322594E-1,5.032491684E-2,5.889606476E-2
6.385077100E0,1.390714645E-1,2.325487137E-2,-3.654289246E-2
6.390077100E0,1.819330454E-1,1.041173935E-2,-8.943939209E-2
6.395077100E0,2.224267721E-1,-3.556251526E-3,-1.234483719E-1
6.400077100E0,2.715098858E-1,1.852273941E-3,-1.779603958E-1
6.405077100E0,3.005188704E-1,5.375385284E-3,-2.911357880E-1
6.410077100E0,3.652067184E-1,-5.568742752E-3,-4.715099335E-1
6.415077100E0,3.374137878E-1,4.475355148E-2,-5.785217285E-1
6.420077100E0,3.200932741E-1,1.463150978E-2,-5.365543365E-1
6.425077100E0,3.304735422E-1,-4.573249817E-2,-4.874362946E-1
6.430077100E0,3.363293409E-1,-7.290625572E-2,-4.722843170E-1
6.435077100E0,3.475092649E-1,-8.538913727E-2,-4.540672302E-1
6.440077100E0,3.581950665E-1,-8.575606346E-2,-4.062805176E-1
6.445077100E0,3.066201210E-1,-5.966329575E-2,-3.500146866E-1
6.450077100E0,2.653335333E-1,-4.272246361E-2,-3.067913055E-1
6.455077100E0,2.438535690E-1,-2.051806450E-2,-2.899293900E-1
6.460077100E0,2.215341330E-1,2.320051193E-3,-4.541339874E-1
6.465077100E0,9.802675247E-2,4.405713081E-2,-3.887577057E-1
6.470077100E0,1.756846905E-2,4.937481880E-2,-2.210407257E-1
6.475077100E0,-6.138062477E-2,7.178783417E-2,-8.749008179E-2
6.480077100E0,-6.306242943E-2,1.081707478E-1,-4.657268524E-2
6.485077100E0,5.420446396E-4,1.123373508E-1,-1.465167999E-1
6.490077100E0,8.651936054E-2,1.227078438E-1,-4.739427567E-1
6.495077100E0,1.343973875E-1,1.707990170E-1,-8.533029556E-1
6.500077100E0,9.260678291E-2,2.363336086E-1,-9.681749344E-1
6.505077100E0,6.198477745E-2,2.781832218E-1,-8.696470261E-1
6.510077100E0,5.756211281E-2,3.140361309E-1,-6.403675079E-1
6.515077100E0,1.055904627E-1,2.680838108E-1,-3.992576599E-1
6.520077100E0,1.434547901E-1,1.579618454E-1,-2.084884644E-1
6.525077100E0,1.003773212E-1,6.077957153E-2,-1.310205460E-1
6.530077100E0,5.229711533E-2,-3.523659706E-2,-1.206874847E-1
6.535077100E0,4.080247879E-2,-1.207940578E-1,-1.646175385E-1
6.540077100E0,4.235124588E-2,-1.074771881E-1,-1.970090866E-1
6.545077100E0,8.851075172E-2,-1.373281479E-1,-1.639442444E-1
6.550077100E0,1.418917179E-1,-1.965548992E-1,-1.575832367E-1
6.555077100E0,2.136366367E-1,-2.440114021E-1,-2.165079117E-1
6.560077100E0,2.437998056E-1,-2.383389473E-1,-2.423572540E-1
6.565077100E0,2.645649910E-1,-1.820473671E-1,-2.407026291E-1
6.570077100E0,2.860715389E-1,-1.223063469E-1,-2.233943939E-1
6.575077100E0,3.497198820E-1,-9.398746490E-2,-1.674070358E-1
6.580077100E0,4.174172878E-1,-9.264326096E-2,-1.722764969E-1
6.585077100E0,4.616953135E-1,-7.795596123E-2,-2.888708115E-1
6.590077100E0,4.891715050E-1,-1.011881828E-1,-4.027633667E-1
6.595077100E0,4.963042736E-1,-1.293120384E-1,-5.160045624E-1
6.600077100E0,4.924029112E-1,-1.766715050E-1,-4.310331345E-1
6.605077100E0,5.137922764E-1,-4.361436367E-1,-1.051740646E-1
6.610077100E0,7.024838924E-1,-8.634154797E-1,1.970472336E-1
6.615077100E0,8.434879780E-1,-1.028422832E0,3.761901855E-1
6.620077100E0,9.494053125E-1,-1.007405281E0,5.097770691E-1
6.625077100E0,9.418008327E-1,-8.417866230E-1,4.580774307E-1
6.630077100E0,7.855800390E-1,-5.798642635E-1,3.911199570E-1
6.635077100E0,6.479153633E-1,-3.943438530E-1,4.674615860E-1
6.640077100E0,5.816544294E-1,-2.838077545E-1,4.531860352E-1
6.645077100E0,6.350481510E-1,-3.220722675E-1,4.430360794E-1
6.650077100E0,7.044799328E-1,-3.323657513E-1,3.170080185E-1
6.655077100E0,6.310009956E-1,-1.844105721E-1,1.800098419E-1
6.660077100E0,3.672465086E-1,7.174038887E-2,2.761840820E-3
6.665077100E0,3.908228874E-2,3.864665031E-1,-1.309566498E-1
6.670077100E0,-2.264964581E-1,6.306526661E-1,-1.133060455E-1
6.675077100E0,-3.861899376E-1,7.633883953E-1,1.558589935E-2
6.680077100E0,-3.879663944E-1,7.660481930E-1,2.437267303E-1
6.685077100E0,-2.736418247E-1,6.444983482E-1,4.650812149E-1
6.690077100E0,-1.459906101E-1,4.805974960E-1,5.999059677E-1
6.695077100E0,-1.209406853E-1,3.328349590E-1,6.508588791E-1
6.700077100E0,-1.514680386E-1,2.479228973E-1,5.990352631E-1
6.705077100E0,-2.509279251E-1,2.531261444E-1,5.245409012E-1
6.710077100E0,-3.770582676E-1,3.445260525E-1,4.950952530E-1
6.715077100E0,-4.034044743E-1,4.419460297E-1,5.242862701E-1
6.720077100E0,-3.499569893E-1,4.913883209E-1,6.246089935E-1
6.725077100E0,-2.176666260E-1,4.890942574E-1,8.094358444E-1
6.730077100E0,-6.079649925E-2,5.530533791E-1,1.082671165E0
6.735077100E0,3.046798706E-2,5.718083382E-1,1.459821701E0
6.740077100E0,8.597064018E-2,2.689776421E-1,1.813524246E0
6.745077100E0,-6.657147408E-2,1.404094696E-2,2.095190048E0
6.750077100E0,-3.009905815E-1,-1.018412113E-1,2.232404709E0
6.755077100E0,-4.023251534E-1,-1.749045849E-1,2.202624321E0
6.760077100E0,-4.282984734E-1,-2.394587994E-1,2.062325478E0
6.765077100E0,-4.286575317E-1,-3.248288631E-1,1.826540947E0
6.770077100E0,-3.965880871E-1,-3.986477852E-1,1.513657570E0
6.775077100E0,-3.070600033E-1,-5.030739307E-1,1.147647858E0
6.780077100E0,-2.807271481E-1,-5.413031578E-1,7.712011337E-1
6.785077100E0,-2.915010452E-1,-5.493295193E-1,4.087953568E-1
6.790077100E0,-2.758536339E-1,-5.475208759E-1,1.915416718E-1
6.795077100E0,-2.971487045E-1,-4.975285530E-1,1.333131790E-1
6.800077100E0,-2.383418083E-1,-3.682534695E-1,1.041717529E-1
6.805077100E0,-1.022870541E-1,-2.497313023E-1,8.302688599E-2
6.810077100E0,5.219173431E-2,-1.608295441E-1,1.536073685E-1
6.815077100E0,2.168931961E-1,-1.125271320E-1,2.437572479E-1
6.820077100E0,3.493216038E-1,-1.496632099E-1,3.739356995E-1
6.825077100E0,4.350950718E-1,-3.091998100E-1,4.275722504E-1
6.830077100E0,4.922682047E-1,-5.270836353E-1,3.978090286E-1
6.835077100E0,5.514771938E-1,-7.328703403E-1,3.219556808E-1
6.840077100E0,5.534389019E-1,-8.144803047E-1,1.767606735E-1
6.845077100E0,5.019876957E-1,-7.854901552E-1,-9.118556976E-2
6.850077100E0,4.017801285E-1,-6.510071754E-1,-3.852357864E-1
6.855077100E0,3.018975258E-1,-4.434416294E-1,-6.267051697E-1
6.860077100E0,9.567260742E-2,-2.113044262E-1,-8.687000275E-1
6.865077100E0,-1.805584431E-1,8.229255676E-3,-1.065974236E0
6.870077100E0,-4.363510609E-1,1.449770927E-1,-1.113306999E0
6.875077100E0,-6.249880791E-1,2.125589848E-1,-1.051954269E0
6.880077100E0,-7.103035450E-1,2.229864597E-1,-8.564071655E-1
6.885077100E0,-6.928241253E-1,1.848599911E-1,-6.671819687E-1
6.890077100E0,-5.792632103E-1,1.675632000E-1,-5.120391846E-1
6.895077100E0,-3.755464554E-1,1.323997974E-1,-3.088245392E-1
6.900077100E0,-1.541857719E-1,9.027743340E-2,-1.267805099E-1
6.905077100E0,4.634261131E-2,8.466243744E-3,-1.356697083E-2
6.910077100E0,1.408033371E-1,-1.693873405E-1,4.276275635E-2
6.915077100E0,1.629290581E-1,-4.123730659E-1,4.486083984E-2
6.920077100E0,1.387792826E-1,-5.732424259E-1,1.591405869E-1
6.925077100E0,1.723611355E-1,-6.182155609E-1,1.486577988E-1
6.930077100E0,3.090085983E-1,-6.567461491E-1,2.656173706E-2
6.935077100E0,4.414221048E-1,-7.101718187E-1,-5.577278137E-2
6.940077100E0,5.319334269E-1,-7.562520504E-1,-7.823944092E-3
6.945077100E0,5.406540632E-1,-7.643024921E-1,1.605901718E-1
6.950077100E0,5.049773455E-1,-7.016088963E-1,4.209709167E-1
6.955077100E0,4.663746357E-1,-6.066427231E-1,7.078981400E-1
6.960077100E0,4.270409346E-1,-5.411789417E-1,9.106359482E-1
6.965077100E0,3.317975998E-1,-5.348865986E-1,9.788656235E-1
6.970077100E0,2.250137329E-1,-5.503563881E-1,9.592533112E-1
6.975077100E0,1.659095287E-1,-5.348424911E-1,8.753366470E-1
6.980077100E0,1.512513161E-1,-4.916460514E-1,7.172994614E-1
6.985077100E0,1.625316143E-1,-4.313008785E-1,5.374460220E-1
6.990077100E0,2.121591568E-1,-5.571570396E-1,2.800645828E-1
6.995077100E0,1.845035553E-1,-4.970316887E-1,7.533073425E-2
7.000077100E0,1.399148703E-1,-4.108288288E-1,-1.129722595E-2
7.005077100E0,6.215274334E-2,-3.719621897E-1,5.624198914E-2
7.010077100E0,-3.688490391E-2,-3.666757345E-1,1.758518219E-1
7.015077100E0,-1.451482773E-1,-3.581361771E-1,2.237339020E-1
7.020077100E0,-2.621738911E-1,-3.049805164E-1,3.098955154E-1
7.025077100E0,-3.613145351E-1,-2.316784859E-1,4.689111710E-1
7.030077100E0,-4.418674707E-1,-1.782243252E-1,5.604600906E-1
7.035077100E0,-4.815946817E-1,-1.412141323E-1,5.725126266E-1
7.040077100E0,-4.446003437E-1,-2.260127068E-1,5.870132446E-1
7.045077100E0,-5.253233910E-1,-1.993637085E-1,4.985837936E-1
7.050077100E0,-5.757049322E-1,-2.010802031E-1,3.688182831E-1
7.055077100E0,-5.629144907E-1,-1.992058754E-1,1.263141632E-2
7.060077100E0,-5.238478184E-1,-1.879861355E-1,-1.320629120E-1
7.065077100E0,-5.031809807E-1,-1.245522499E-1,-2.546043396E-1
7.070077100E0,-5.282719135E-1,-2.642822266E-2,-2.916536331E-1
7.075077100E0,-5.986496210E-1,4.315519333E-2,-1.035728455E-1
7.080077100E0,-7.554583549E-1,1.522436142E-1,1.988649368E-1
7.085077100E0,-8.997905254E-1,2.678689957E-1,4.628028870E-1
7.090077100E0,-1.022184610E0,3.401966095E-1,5.671281815E-1
7.095077100E0,-1.053941965E0,3.799674511E-1,4.891128540E-1
7.100077100E0,-1.011053681E0,3.939421177E-1,3.009672165E-1
7.105077100E0,-8.947324753E-1,4.039275646E-1,7.383728027E-2
7.110077100E0,-7.145502567E-1,4.256157875E-1,-2.033214569E-1
7.115077100E0,-5.518958569E-1,4.131040573E-1,-4.939632416E-1
7.120077100E0,-4.679709673E-1,4.139261246E-1,-7.894620895E-1
7.125077100E0,-4.265429974E-1,4.243457317E-1,-1.025828362E0
7.130077100E0,-3.831148148E-1,4.413137436E-1,-1.170414925E0
7.135077100E0,-4.278208017E-1,5.484733582E-1,-1.185854912E0
7.140077100E0,-5.263957977E-1,7.598485947E-1,-1.075635910E0
7.145077100E0,-5.838639736E-1,9.165694714E-1,-8.791761398E-1
7.150077100E0,-6.328603029E-1,1.024898767E0,-6.277847290E-1
7.155077100E0,-6.186112165E-1,1.059362888E0,-3.478412628E-1
7.160077100E0,-4.809920788E-1,9.374990463E-1,-6.498336792E-2
7.165077100E0,-3.133281469E-1,7.241303921E-1,1.271028519E-1
7.170077100E0,-1.823540926E-1,5.974750519E-1,3.012142181E-1
7.175077100E0,-1.708796024E-1,6.321020126E-1,4.465980530E-1
7.180077100E0,-2.751812935E-1,7.063820362E-1,5.952043533E-1
7.185077100E0,-4.511383772E-1,7.147052288E-1,7.514057159E-1
7.190077100E0,-6.393475533E-1,7.732286453E-1,8.062715530E-1
7.195077100E0,-6.763042212E-1,7.640538216E-1,7.477045059E-1
7.200077100E0,-6.733391285E-1,7.464354038E-1,7.420721054E-1
7.205077100E0,-6.390030384E-1,7.377324104E-1,8.488359451E-1
7.210077100E0,-6.142016649E-1,7.637400627E-1,9.543685913E-1
7.215077100E0,-4.170511961E-1,7.055993080E-1,9.671068192E-1
7.220077100E0,-1.994100809E-1,5.905683041E-1,7.683048248E-1
7.225077100E0,-1.220649481E-1,5.282955170E-1,5.735225677E-1
7.230077100E0,-1.026628613E-1,5.369896889E-1,4.601478577E-1
7.235077100E0,-2.160988450E-1,6.002373695E-1,4.270944595E-1
7.240077100E0,-3.581348658E-1,6.743249893E-1,4.894943237E-1
7.245077100E0,-4.732139111E-1,7.302837372E-1,4.807882309E-1
7.250077100E0,-4.936228991E-1,7.623109818E-1,4.343910217E-1
7.255077100E0,-4.847916365E-1,8.783504963E-1,3.545398712E-1
7.260077100E0,-4.266396761E-1,8.538236618E-1,1.846446991E-1
7.265077100E0,-4.051164985E-1,7.619729042E-1,1.325607300E-2
7.270077100E0,-3.945494294E-1,7.022221088E-1,-1.607646942E-1
7.275077100E0,-3.681327105E-1,6.330051422E-1,-2.461280823E-1
7.280077100E0,-3.379828334E-1,6.099696159E-1,-2.736911774E-1
7.285077100E0,-3.263435364E-1,6.437807083E-1,-3.117771149E-1
7.290077100E0,-3.453693986E-1,6.982939243E-1,-2.196855545E-1
7.295077100E0,-4.111759663E-1,7.593646049E-1,-2.702617645E-2
7.300077100E0,-4.896626472E-1,8.147041798E-1,1.639184952E-1
7.305077100E0,-6.209026575E-1,7.985324860E-1,1.701040268E-1
7.310077100E0,-7.248948216E-1,5.982007980E-1,7.232189178E-2
7.315077100E0,-7.544010878E-1,3.332223892E-1,4.806518555E-3
7.320077100E0,-7.647604942E-1,1.575982571E-1,5.734729767E-2
7.325077100E0,-7.715570927E-1,1.026406288E-1,1.682119370E-1
7.330077100E0,-7.285877466E-1,9.130120277E-2,1.311903000E-1
7.335077100E0,-6.218010187E-1,2.652955055E-2,-8.372306824E-3
7.340077100E0,-5.198280811E-1,-1.929097176E-1,-2.311830521E-1
7.345077100E0,-3.896082342E-1,-3.771858215E-1,-4.156847000E-1
7.350077100E0,-2.569627166E-1,-3.940627575E-1,-4.432563782E-1
7.355077100E0,-1.458598524E-1,-3.436386585E-1,-4.247398376E-1
7.360077100E0,-5.457562953E-2,-2.977492809E-1,-4.893827438E-1
7.365077100E0,-3.133054823E-3,-3.199439049E-1,-6.170225143E-1
7.370077100E0,-1.455054153E-2,-3.586833477E-1,-6.828174591E-1
7.375077100E0,-5.516891554E-2,-3.949613571E-1,-7.257184982E-1
7.380077100E0,-9.906809032E-2,-4.205181599E-1,-7.634201050E-1
7.385077100E0,-1.788730919E-1,-3.955917358E-1,-7.335815430E-1
7.390077100E0,-3.473571539E-1,-3.303334713E-1,-6.098480225E-1
7.395077100E0,-5.394288301E-1,-2.406733036E-1,-4.432754517E-1
7.400077100E0,-6.210709810E-1,-2.191147804E-1,-2.727594376E-1
7.405077100E0,-5.775142312E-1,-2.430441380E-1,-1.322860718E-1
7.410077100E0,-4.662792683E-1,-3.099396229E-1,5.429363251E-2
7.415077100E0,-3.843877017E-1,-4.425415993E-1,2.403144836E-1
7.420077100E0,-2.839288116E-1,-6.032168865E-1,3.401012421E-1
7.425077100E0,-1.677830517E-1,-7.987229824E-1,2.735280991E-1
7.430077100E0,-6.167444587E-2,-9.873188734E-1,2.229681015E-1
7.435077100E0,3.055465221E-2,-1.162148476E0,1.934928894E-1
7.440077100E0,1.195036471E-1,-1.311147332E0,1.924657822E-1
7.445077100E0,2.231641710E-1,-1.417828202E0,1.951856613E-1
7.450077100E0,3.107622862E-1,-1.463197470E0,1.789026260E-1
7.455077100E0,3.713243902E-1,-1.431228876E0,1.334514618E-1
7.460077100E0,3.654614985E-1,-1.297454119E0,1.422739029E-1
7.465077100E0,3.028002977E-1,-1.137554765E0,1.287841797E-1
7.470077100E0,2.184906304E-1,-9.257922173E-1,7.336044312E-2
7.475077100E0,1.906784177E-1,-7.208118439E-1,1.462173462E-2
7.480077100E0,2.005939484E-1,-5.538883209E-1,-1.536655426E-2
7.485077100E0,1.280269325E-1,-4.631450176E-1,1.768970490E-2
7.490077100E0,-9.028671682E-2,-4.204170704E-1,1.047906876E-1
7.495077100E0,-3.226246238E-1,-4.152812958E-1,2.146234512E-1
7.500077100E0,-3.947305679E-1,-4.746844769E-1,2.708234787E-1
7.505077100E0,-4.012720585E-1,-5.477278233E-1,2.482528687E-1
7.510077100E0,-3.644852936E-1,-6.263906956E-1,2.387323380E-1
7.515077100E0,-2.925167680E-1,-6.817231178E-1,1.946773529E-1
7.520077100E0,-1.413873136E-1,-7.918715477E-1,7.680797577E-2
7.525077100E0,7.277026027E-2,-9.200546741E-1,-4.791736603E-2
7.530077100E0,2.177574337E-1,-1.029367208E0,-2.002248764E-1
7.535077100E0,3.791501522E-1,-1.083587408E0,-3.165321350E-1
7.540077100E0,5.329507589E-1,-1.104421616E0,-3.958320618E-1
7.545077100E0,6.336972713E-1,-1.099452972E0,-4.167041779E-1
7.550077100E0,6.813207269E-1,-1.099941015E0,-4.932012558E-1
7.555077100E0,6.597239375E-1,-1.085254908E0,-5.566844940E-1
7.560077100E0,5.014698505E-1,-1.024379015E0,-6.189966202E-1
7.565077100E0,3.845944107E-1,-9.346113205E-1,-6.562528610E-1
7.570077100E0,2.690656781E-1,-8.245079517E-1,-7.401008606E-1
7.575077100E0,1.218933016E-1,-6.743791103E-1,-7.667064667E-1
7.580077100E0,-1.428268403E-1,-4.854836464E-1,-7.420415878E-1
7.585077100E0,-4.425445795E-1,-2.785048485E-1,-6.921377182E-1
7.590077100E0,-6.916572452E-1,-8.910322189E-2,-7.122373581E-1
7.595077100E0,-8.094087839E-1,9.928798676E-2,-7.907361984E-1
7.600077100E0,-8.585234880E-1,2.467739582E-1,-8.753280640E-1
7.605077100E0,-8.958132267E-1,3.930389881E-1,-9.519033432E-1
7.610077100E0,-8.224663138E-1,4.746038914E-1,-1.086221695E0
7.615077100E0,-7.276687622E-1,4.973607063E-1,-1.270902634E0
7.620077100E0,-6.239776611E-1,5.154805183E-1,-1.494867325E0
7.625077100E0,-5.459552407E-1,4.797210693E-1,-1.675888062E0
7.630077100E0,-5.623483062E-1,5.277714729E-1,-1.810878754E0
7.635077100E0,-6.050431728E-1,5.751180649E-1,-1.893235207E0
7.640077100E0,-6.656447649E-1,6.003136635E-1,-1.822898865E0
7.645077100E0,-7.608849406E-1,6.420288086E-1,-1.643107414E0
7.650077100E0,-8.392419219E-1,6.036334038E-1,-1.361370087E0
7.655077100E0,-8.026679754E-1,4.514603615E-1,-1.055355072E0
7.660077100E0,-7.074863315E-1,2.294454575E-1,-7.890901566E-1
7.665077100E0,-5.926614404E-1,-6.765842438E-3,-5.807809830E-1
7.670077100E0,-4.530235529E-1,-1.716876030E-1,-4.152336121E-1
7.675077100E0,-3.096117079E-1,-3.210082054E-1,-2.598924637E-1
7.680077100E0,-2.094843835E-1,-3.956656456E-1,-2.021856308E-1
7.685077100E0,-1.846974343E-1,-3.986825943E-1,-2.047567368E-1
7.690077100E0,-2.502845526E-1,-3.464384079E-1,-1.855936050E-1
7.695077100E0,-3.405400515E-1,-2.469303608E-1,-1.605777740E-1
7.700077100E0,-4.229843020E-1,-1.137542725E-1,-1.713323593E-1
7.705077100E0,-4.088987410E-1,-1.538801193E-2,-2.003383636E-1
7.710077100E0,-3.690443635E-1,7.607698441E-2,-2.371368408E-1
7.715077100E0,-3.091043532E-1,1.261696815E-1,-2.508049011E-1
7.720077100E0,-2.436008453E-1,1.163606644E-1,-2.784700394E-1
7.725077100E0,-1.454668939E-1,8.487606049E-2,-2.389144897E-1
7.730077100E0,-4.178562760E-2,4.587030411E-2,-1.689291000E-1
7.735077100E0,8.323886991E-2,-4.351139069E-2,1.959133148E-1
7.740077100E0,1.580502391E-1,-1.514937878E-1,1.918230057E-1
7.745077100E0,1.288384199E-1,-1.992216110E-1,-7.403659821E-2
7.750077100E0,6.910169125E-2,-1.074652672E-1,-1.473140717E-2
7.755077100E0,-7.391241193E-2,5.274057388E-2,3.850650787E-2
7.760077100E0,-2.013856769E-1,1.622586250E-1,1.148633957E-1
7.765077100E0,-2.397714257E-1,2.197847366E-1,2.418336868E-1
7.770077100E0,-2.127749324E-1,2.303557396E-1,3.387813568E-1
7.775077100E0,-1.636947691E-1,2.276234627E-1,4.122524261E-1
7.780077100E0,-8.505085111E-2,1.743392944E-1,3.636951447E-1
7.785077100E0,-4.245698452E-3,1.302213669E-1,3.173675537E-1
7.790077100E0,8.898806572E-2,1.100697517E-1,3.072834015E-1
7.795077100E0,1.860226393E-1,1.201028824E-1,2.344398499E-1
7.800077100E0,2.530308366E-1,1.016421318E-1,1.471757889E-1
7.805077100E0,3.079161644E-1,1.252617836E-1,6.547641754E-2
7.810077100E0,3.033043742E-1,2.279286385E-1,-6.234645844E-2
7.815077100E0,1.940540671E-1,3.042788506E-1,-7.352638245E-2
7.820077100E0,-7.711172104E-3,3.885846138E-1,1.394710541E-1
7.825077100E0,-9.296816587E-2,3.956117630E-1,3.556737900E-1
7.830077100E0,-9.530079365E-2,3.883500099E-1,4.133214951E-1
7.835077100E0,-6.625556946E-2,3.938198090E-1,3.119392395E-1
7.840077100E0,-8.532047272E-3,3.867607117E-1,2.683467865E-1
7.845077100E0,8.784627914E-2,4.189229012E-1,6.224250793E-2
7.850077100E0,1.459286809E-1,5.119090080E-1,-1.836023331E-1
7.855077100E0,1.463115215E-1,5.986437798E-1,-4.931497574E-1
7.860077100E0,1.020141244E-1,7.281761169E-1,-5.978279114E-1
7.865077100E0,9.347313643E-2,8.165764809E-1,-5.827817917E-1
7.870077100E0,1.625316739E-1,9.128923416E-1,-4.812431335E-1
7.875077100E0,2.355053425E-1,9.982218742E-1,-5.351934433E-1
7.880077100E0,2.470535040E-1,1.048325062E0,-5.334520340E-1
7.885077100E0,2.147155404E-1,1.060191631E0,-4.170846939E-1
7.890077100E0,1.667529941E-1,1.043701649E0,-2.943353653E-1
7.895077100E0,1.058545113E-1,9.797248840E-1,-1.125211716E-1
7.900077100E0,5.822271109E-2,9.192667007E-1,2.754497528E-2
7.905077100E0,2.407717705E-2,8.338460922E-1,2.253618240E-1
7.910077100E0,4.344481230E-2,7.246570587E-1,3.806676865E-1
7.915077100E0,1.156843901E-1,5.733809471E-1,5.250644684E-1
7.920077100E0,1.805262566E-1,4.457216263E-1,6.388740540E-1
7.925077100E0,1.289284229E-1,3.844580650E-1,7.607622147E-1
7.930077100E0,9.051477909E-2,3.259811401E-1,8.029003143E-1
7.935077100E0,1.016513109E-1,2.463202477E-1,8.480415344E-1
7.940077100E0,1.142188311E-1,1.339516640E-1,8.340520859E-1
7.945077100E0,1.410003901E-1,3.603458405E-2,7.782878876E-1
7.950077100E0,1.864398718E-1,-3.250169754E-2,7.264566422E-1
7.955077100E0,2.010056973E-1,-7.886266708E-2,7.159633636E-1
7.960077100E0,1.912798882E-1,-1.036186218E-1,6.634283066E-1
7.965077100E0,1.935273409E-1,-9.519052505E-2,5.153856277E-1
7.970077100E0,1.764770746E-1,-2.712965012E-2,3.315324783E-1
7.975077100E0,1.462832093E-1,5.786323547E-2,1.781072617E-1
7.980077100E0,1.396847963E-1,1.192483902E-1,1.268863678E-1
7.985077100E0,1.474892497E-1,1.211161613E-1,1.209144592E-1
7.990077100E0,1.313420534E-1,1.082415581E-1,-2.581558228E-1
7.995077100E0,7.410562038E-2,1.034646034E-1,-3.369913101E-1
8.000077100E0,-3.065162897E-2,1.495614052E-1,-4.485826492E-1
8.005077100E0,-1.529986858E-1,2.384738922E-1,-5.031347275E-1
8.010077100E0,-3.002917171E-1,2.371029854E-1,-2.623720169E-1
8.015077100E0,-3.242408335E-1,1.830101013E-1,-4.668140411E-2
8.020077100E0,-2.309880853E-1,1.354718208E-1,-4.241466522E-2
8.025077100E0,-2.054280639E-1,6.469392776E-2,-1.573181152E-1
8.030077100E0,-1.930789948E-1,1.324176788E-2,-1.378335953E-1
8.035077100E0,-2.007005215E-1,-5.142784119E-2,-1.216783524E-1
8.040077100E0,-1.966261268E-1,-6.099271774E-2,-3.770761490E-1
8.045077100E0,-2.275675535E-1,-9.087657928E-2,-3.315162659E-1
8.050077100E0,-2.155805230E-1,-8.018779755E-2,-2.861251831E-1
8.055077100E0,-2.020158768E-1,-4.326486588E-2,-2.765960693E-1
8.060077100E0,-2.453760803E-1,4.630136490E-2,-2.939720154E-1
8.065077100E0,-2.929390073E-1,-5.430936813E-2,-3.002681732E-1
8.070077100E0,-2.748748064E-1,-1.454482079E-1,-6.245031357E-1
8.075077100E0,-2.428414524E-1,-1.999850273E-1,-6.391506195E-1
8.080077100E0,-2.290388942E-1,-1.789226532E-1,-7.166900635E-1
8.085077100E0,-2.745630145E-1,-1.080436707E-1,-6.767625809E-1
8.090077100E0,-3.720602393E-1,-3.394126892E-2,-5.957508087E-1
8.095077100E0,-4.335723519E-1,2.494049072E-2,-5.578804016E-1
8.100077100E0,-4.221565127E-1,1.312971115E-2,-5.597343445E-1
8.105077100E0,-2.487229109E-1,-8.539772034E-2,-5.430545807E-1
8.110077100E0,-3.054834306E-1,-1.720972061E-1,-5.388584137E-1
8.115077100E0,-3.578546047E-1,-1.586518288E-1,-2.788133621E-1
8.120077100E0,-3.604754806E-1,-1.247878075E-1,-5.610446930E-1
8.125077100E0,-2.657409906E-1,-1.703085899E-1,-4.092569351E-1
8.130077100E0,-2.355523109E-1,-1.799573898E-1,-3.117866516E-1
8.135077100E0,-2.469897270E-1,-9.897613525E-2,-4.022874832E-1
8.140077100E0,-2.005664408E-1,-3.910970688E-2,-4.360771179E-1
8.145077100E0,-1.452247500E-1,4.796981812E-3,-4.613800049E-1
8.150077100E0,-8.948326111E-2,6.212854385E-2,-4.828720093E-1
8.155077100E0,-6.811714172E-2,8.622598648E-2,-4.365329742E-1
8.160077100E0,-7.030004263E-2,9.532260895E-2,-1.724100113E-1
8.165077100E0,-7.942432165E-2,7.195615768E-2,-3.160085678E-1
8.170077100E0,-9.725874662E-2,4.882049561E-2,-2.341003418E-1
8.175077100E0,-1.321829557E-1,9.572982788E-3,-1.242885590E-1
8.180077100E0,-9.937721491E-2,-6.286001205E-2,-4.936313629E-2
8.185077100E0,-5.671477318E-2,-7.173728943E-2,4.812240601E-3
8.190077100E0,-1.058506966E-2,-3.910970688E-2,7.770347595E-2
8.195077100E0,1.040565968E-2,6.950855255E-3,1.304130554E-1
8.200077100E0,7.551312447E-3,4.511260986E-2,2.066383362E-1
8.205077100E0,7.379055023E-5,8.696794510E-2,2.623252869E-1
8.210077100E0,1.068294048E-3,8.456754684E-2,2.972507477E-1
8.215077100E0,2.966785431E-2,4.049634933E-2,3.264055252E-1
8.220077100E0,9.060198069E-2,6.347179413E-3,3.819141388E-1
8.225077100E0,1.580754519E-1,-1.221275330E-2,3.941183090E-1
8.230077100E0,2.024407387E-1,-9.012222290E-4,3.749065399E-1
8.235077100E0,2.317627072E-1,2.771091461E-2,4.236240387E-1
8.240077100E0,2.317850590E-1,2.717161179E-2,5.078382492E-1
8.245077100E0,2.123646736E-1,3.379821777E-3,5.962953568E-1
8.250077100E0,2.211847901E-1,-3.091144562E-2,6.732921600E-1
8.255077100E0,2.337164879E-1,-5.445814133E-2,6.667156219E-1
8.260077100E0,2.593770623E-1,-4.239749908E-2,5.842208862E-1
8.265077100E0,2.960085273E-1,-6.397724152E-2,4.380836487E-1
8.270077100E0,3.385599852E-1,-9.520721436E-2,3.034458160E-1
8.275077100E0,3.863958716E-1,-9.931755066E-2,1.456069946E-1
8.280077100E0,4.342054129E-1,-9.466743469E-2,-6.908416748E-3
8.285077100E0,4.468511343E-1,-7.770776749E-2,-1.087398529E-1
8.290077100E0,3.932167888E-1,-7.908391953E-2,-1.482391357E-1
8.295077100E0,3.258696198E-1,-7.103681564E-2,-1.349353790E-1
8.300077100E0,2.783835530E-1,-8.325195312E-2,-1.097497940E-1
8.305077100E0,2.511964440E-1,-1.005244255E-1,-1.138000488E-1
8.310077100E0,2.527379394E-1,-1.303915977E-1,-1.442508698E-1
8.315077100E0,2.319475412E-1,-1.459608078E-1,-2.750101089E-1
8.320077100E0,2.271685600E-1,-1.381535530E-1,-3.990421295E-1
8.325077100E0,2.291921973E-1,-1.293382645E-1,-5.161714554E-1
8.330077100E0,2.187137008E-1,-1.241540909E-1,-6.051435471E-1
8.335077100E0,2.031903267E-1,-1.058444977E-1,-6.575975418E-1
8.340077100E0,1.748432517E-1,-8.758401871E-2,-6.563405991E-1
8.345077100E0,1.564502120E-1,-8.450937271E-2,-6.070966721E-1
8.350077100E0,1.217156053E-1,-8.381319046E-2,-5.849981308E-1
8.355077100E0,6.964147091E-2,-7.551860809E-2,-5.935077667E-1
8.360077100E0,4.480612278E-2,-5.947208405E-2,-5.836277008E-1
8.365077100E0,5.876815319E-2,-3.534698486E-2,-6.212739944E-1
8.370077100E0,5.861735344E-2,-2.553462982E-2,-6.655206680E-1
8.375077100E0,5.303567648E-2,-1.243066788E-2,-6.726560593E-1
8.380077100E0,1.365214586E-2,9.922504425E-3,-6.427259445E-1
8.385077100E0,-3.906041384E-2,-6.467342377E-3,-5.463361740E-1
8.390077100E0,-8.962085843E-2,9.469032288E-3,-4.477090836E-1
8.395077100E0,-1.151465476E-1,1.235294342E-2,-3.927440643E-1
8.400077100E0,-1.347896159E-1,3.644895554E-2,-3.051948547E-1
8.405077100E0,-1.830471158E-1,7.111597061E-2,-1.716890335E-1
8.410077100E0,-1.886963546E-1,-3.025054932E-3,-5.636024475E-2
8.415077100E0,-2.148247659E-1,-6.486415863E-2,1.124277115E-1
8.420077100E0,-2.377046943E-1,-9.010028839E-2,2.313928604E-1
8.425077100E0,-2.374075055E-1,-9.901952744E-2,3.171396255E-1
8.430077100E0,-2.296662629E-1,-1.143279076E-1,3.901205063E-1
8.435077100E0,-2.198362947E-1,-1.450824738E-1,4.609270096E-1
8.440077100E0,-2.167877853E-1,-1.500735283E-1,4.940347672E-1
8.445077100E0,-2.006455660E-1,-1.415262222E-1,5.404205322E-1
8.450077100E0,-1.919339895E-1,-1.405367851E-1,5.724802017E-1
8.455077100E0,-2.047068775E-1,-1.350250244E-1,5.922327042E-1
8.460077100E0,-2.180581093E-1,-1.323289871E-1,6.192016602E-1
8.465077100E0,-2.254375219E-1,-1.382713318E-1,6.662111282E-1
8.470077100E0,-2.199080586E-1,-1.323976517E-1,7.196006775E-1
8.475077100E0,-1.930396855E-1,-1.566920280E-1,7.605571747E-1
8.480077100E0,-1.794624031E-1,-1.672263145E-1,7.982225418E-1
8.485077100E0,-1.582646668E-1,-1.833620071E-1,7.913455963E-1
8.490077100E0,-1.632776558E-1,-1.874866486E-1,7.682495117E-1
8.495077100E0,-1.653515100E-1,-1.739130020E-1,7.247915268E-1
8.500077100E0,-1.671473682E-1,-1.536474228E-1,6.453619003E-1
8.505077100E0,-1.667975783E-1,-1.358723640E-1,5.435428619E-1
8.510077100E0,-1.640481055E-1,-1.267294884E-1,4.438695908E-1
8.515077100E0,-1.425038874E-1,-1.212639809E-1,3.205490112E-1
8.520077100E0,-9.798294306E-2,-1.043925285E-1,1.795244217E-1
8.525077100E0,-6.261223555E-2,-8.897924423E-2,5.509471893E-2
8.530077100E0,-5.734866858E-2,-6.523513794E-2,-3.303337097E-2
8.535077100E0,-6.984725595E-2,-5.779314041E-2,-8.563899994E-2
8.540077100E0,-9.452685714E-2,-4.103755951E-2,-1.122283936E-1
8.545077100E0,-1.312234700E-1,-2.224683762E-2,-1.376705170E-1
8.550077100E0,-1.455371082E-1,-3.640699387E-2,-1.992263794E-1
8.555077100E0,-1.338568926E-1,-3.267860413E-2,-2.420139313E-1
8.560077100E0,-1.392012835E-1,-3.762483597E-2,-2.529106140E-1
8.565077100E0,-1.506239474E-1,-3.062438965E-2,-2.602949142E-1
8.570077100E0,-1.677200198E-1,-2.515649796E-2,-2.412672043E-1
8.575077100E0,-1.713342369E-1,-1.153945923E-3,-2.231283188E-1
8.580077100E0,-1.738365591E-1,-2.088546753E-4,-2.358694077E-1
8.585077100E0,-1.767628491E-1,-3.181934357E-3,-2.724180222E-1
8.590077100E0,-1.779977381E-1,-1.614952087E-2,-3.006076813E-1
8.595077100E0,-1.788780689E-1,-9.996414185E-3,-3.176155090E-1
8.600077100E0,-1.773051620E-1,-2.774238586E-3,-3.303661346E-1
8.605077100E0,-1.609321237E-1,1.228904724E-2,-3.145132065E-1
8.610077100E0,-1.526142359E-1,3.186321259E-2,-3.299579620E-1
8.615077100E0,-1.436396241E-1,3.780937195E-2,-3.196878433E-1
8.620077100E0,-1.240282357E-1,4.340982437E-2,-3.300523758E-1
8.625077100E0,-1.210940480E-1,3.707122803E-2,-3.455095291E-1
8.630077100E0,-1.390636265E-1,3.137731552E-2,-3.238859177E-1
8.635077100E0,-1.457131803E-1,2.389240265E-2,-3.024625778E-1
8.640077100E0,-1.400379539E-1,3.351783752E-2,-2.575950623E-1
8.645077100E0,-1.385524273E-1,2.807474136E-2,-2.338771820E-1
8.650077100E0,-1.130299270E-1,2.157735825E-2,-2.475872040E-1
8.655077100E0,-1.015933752E-1,2.371835709E-2,-2.420053482E-1
8.660077100E0,-1.181577146E-1,3.002643585E-2,-2.180128098E-1
8.665077100E0,-1.341247261E-1,4.895591736E-2,-2.259454727E-1
8.670077100E0,-1.446806192E-1,5.869626999E-2,-2.171316147E-1
8.675077100E0,-1.574098468E-1,6.926012039E-2,-1.913528442E-1
8.680077100E0,-1.874319911E-1,8.598613739E-2,-1.750288010E-1
8.685077100E0,-2.268230915E-1,9.942674637E-2,-1.383666992E-1
8.690077100E0,-2.337010801E-1,1.000294685E-1,-1.082515717E-1
8.695077100E0,-2.274285108E-1,8.237028122E-2,-9.558582306E-2
8.700077100E0,-2.135684043E-1,8.691692352E-2,-8.617305756E-2
8.705077100E0,-2.156548053E-1,9.287214279E-2,-8.838844299E-2
8.710077100E0,-2.607961595E-1,1.214036942E-1,-6.436634064E-2
8.715077100E0,-3.267794847E-1,1.364793777E-1,-1.021480560E-2
8.720077100E0,-3.852339685E-1,1.482210159E-1,6.093120575E-2
8.725077100E0,-3.825329840E-1,1.452817917E-1,1.353864670E-1
8.730077100E0,-3.525168300E-1,1.437854767E-1,1.567678452E-1
8.735077100E0,-3.097624183E-1,1.499795914E-1,1.681671143E-1
8.740077100E0,-2.875925601E-1,1.613588333E-1,1.575183868E-1
8.745077100E0,-2.836157978E-1,1.860780716E-1,1.035146713E-1
8.750077100E0,-2.729982138E-1,2.241225243E-1,5.646514893E-2
8.755077100E0,-2.617305815E-1,2.233238220E-1,7.926464081E-2
8.760077100E0,-2.696093917E-1,2.424778938E-1,1.495094299E-1
8.765077100E0,-2.650389671E-1,2.174224854E-1,2.253360748E-1
8.770077100E0,-2.530796528E-1,2.104644775E-1,2.898578644E-1
8.775077100E0,-2.147383392E-1,2.203416824E-1,3.344488144E-1
8.780077100E0,-1.971569657E-1,2.230396271E-1,3.650493622E-1
8.785077100E0,-1.680822074E-1,2.201170921E-1,3.808336258E-1
8.790077100E0,-1.592290103E-1,2.197828293E-1,4.100637436E-1
8.795077100E0,-1.657058746E-1,2.291884422E-1,4.350919724E-1
8.800077100E0,-1.775619090E-1,2.208886147E-1,4.916763306E-1
8.805077100E0,-1.865268648E-1,1.776261330E-1,6.075439453E-1
8.810077100E0,-1.707082242E-1,1.232376099E-1,6.845912933E-1
8.815077100E0,-1.419137120E-1,8.772754669E-2,7.373085022E-1
8.820077100E0,-7.705289125E-2,7.769203186E-2,7.383098602E-1
8.825077100E0,-4.527473450E-2,4.119253159E-2,7.024602890E-1
8.830077100E0,-1.910537481E-3,5.738687515E-2,6.402196884E-1
8.835077100E0,6.424516439E-2,7.394552231E-2,5.167245865E-1
8.840077100E0,6.987863779E-2,2.803230286E-2,4.546804428E-1
8.845077100E0,4.304304719E-2,-1.652669907E-2,4.417877197E-1
8.850077100E0,3.578352928E-2,-5.827331543E-2,4.010562897E-1
8.855077100E0,6.522020698E-2,-6.851577759E-2,3.460149765E-1
8.860077100E0,1.088077426E-1,-3.330612183E-2,2.626609802E-1
8.865077100E0,1.666752100E-1,-4.002571106E-2,1.501283646E-1
8.870077100E0,1.824958622E-1,-2.767992020E-2,1.946926117E-2
8.875077100E0,2.757121325E-1,6.978034973E-3,-1.606550217E-1
8.880077100E0,2.882790267E-1,-7.500648499E-4,-2.789564133E-1
8.885077100E0,2.531995773E-1,-3.433609009E-2,-3.768682480E-1
8.890077100E0,2.207222581E-1,-7.232236862E-2,-4.491443634E-1
8.895077100E0,2.018867731E-1,-6.215858459E-2,-4.645233154E-1
8.900077100E0,1.902720034E-1,-2.201223373E-2,-4.886989594E-1
8.905077100E0,1.904875636E-1,1.554584503E-2,-5.373287201E-1
8.910077100E0,1.976347268E-1,4.332590103E-2,-6.135196686E-1
8.915077100E0,2.206502557E-1,6.101560593E-2,-6.966915131E-1
8.920077100E0,1.761591733E-1,7.427597046E-2,-7.344150543E-1
8.925077100E0,1.279644370E-1,9.330320358E-2,-7.130794525E-1
8.930077100E0,9.796154499E-2,9.525585175E-2,-6.738262177E-1
8.935077100E0,8.639630675E-2,7.913398743E-2,-6.172618866E-1
8.940077100E0,8.359917998E-2,5.881547928E-2,-5.506534576E-1
8.945077100E0,8.340841532E-2,5.741024017E-2,-5.198945999E-1
8.950077100E0,8.738756180E-2,6.056785583E-2,-4.430017471E-1
8.955077100E0,3.272125125E-2,5.689525604E-2,-3.488025665E-1
8.960077100E0,-2.761307359E-2,6.965827942E-2,-1.852931976E-1
8.965077100E0,-6.317403913E-2,6.288337708E-2,-3.181171417E-2
8.970077100E0,-7.188704610E-2,1.813268661E-2,1.481742859E-1
8.975077100E0,-9.194833040E-2,-2.462577820E-2,2.582397461E-1
8.980077100E0,-7.250332832E-2,-5.720043182E-2,3.365058899E-1
8.985077100E0,-9.962838888E-2,-7.959318161E-2,3.890800476E-1
8.990077100E0,-1.159890592E-1,-8.611011505E-2,4.133253098E-1
8.995077100E0,-1.574083567E-1,-8.832454681E-2,4.445047379E-1
9.000077100E0,-1.712929308E-1,-9.112548828E-2,4.513883591E-1
9.005077100E0,-1.800995171E-1,-7.698535919E-2,4.189968109E-1
9.010077100E0,-1.930435300E-1,-7.486152649E-2,3.790349960E-1
9.015077100E0,-1.834286153E-1,-7.125902176E-2,3.097171783E-1
9.020077100E0,-1.898926198E-1,-5.845737457E-2,2.151966095E-1
9.025077100E0,-1.926695257E-1,-3.766059875E-2,1.093683243E-1
9.030077100E0,-1.885376722E-1,-1.960802078E-2,3.023624420E-2
9.035077100E0,-2.207016200E-1,-7.677078247E-5,-3.465747833E-2
9.040077100E0,-2.406084388E-1,1.219654083E-2,-5.309391022E-2
9.045077100E0,-2.755504251E-1,9.615421295E-3,-5.683517456E-2
9.050077100E0,-2.932617962E-1,-4.057884216E-4,-8.149337769E-2
9.055077100E0,-3.283564746E-1,1.680850983E-3,-1.193742752E-1
9.060077100E0,-3.651400506E-1,8.163452148E-3,-1.433935165E-1
9.065077100E0,-4.027342200E-1,1.230812073E-2,-1.463623047E-1
9.070077100E0,-4.291953743E-1,-5.949020386E-3,-1.276044846E-1
9.075077100E0,-4.460287690E-1,-2.994632721E-2,-1.403264999E-1
9.080077100E0,-4.555557668E-1,-5.438804626E-2,-1.599617004E-1
9.085077100E0,-4.434999228E-1,-6.486272812E-2,-1.576795578E-1
9.090077100E0,-4.362769425E-1,-7.579565048E-2,-1.783046722E-1
9.095077100E0,-4.328095317E-1,-7.156276703E-2,-2.115592957E-1
9.100077100E0,-4.191992581E-1,-9.245061874E-2,-2.593917847E-1
9.105077100E0,-3.932863772E-1,-1.139373779E-1,-2.772798538E-1
9.110077100E0,-3.730348945E-1,-1.188640594E-1,-3.144569397E-1
9.115077100E0,-3.500819802E-1,-1.189894676E-1,-3.475742340E-1
9.120077100E0,-3.375106454E-1,-1.063189507E-1,-3.576231003E-1
9.125077100E0,-3.109501600E-1,-7.955312729E-2,-3.335285187E-1
9.130077100E0,-2.750087976E-1,-7.932090759E-2,-3.049554825E-1
9.135077100E0,-2.410214543E-1,-9.145736694E-2,-2.637014389E-1
9.140077100E0,-2.224027663E-1,-9.723520279E-2,-2.563238144E-1
9.145077100E0,-1.942416728E-1,-8.420753479E-2,-2.680034637E-1
9.150077100E0,-1.718131900E-1,-7.377290726E-2,-2.661819458E-1
9.155077100E0,-1.564188451E-1,-5.955362320E-2,-2.522363663E-1
9.160077100E0,-1.672972739E-1,-4.526185989E-2,-1.861486435E-1
9.165077100E0,-1.427153945E-1,-4.369401932E-2,-1.225862503E-1
9.170077100E0,-9.311525524E-2,-5.776453018E-2,-8.116340637E-2
9.175077100E0,-2.575074136E-2,-6.886577606E-2,-6.948375702E-2
9.180077100E0,2.947577834E-2,-5.240869522E-2,-6.330204010E-2
9.185077100E0,5.613739789E-2,-3.598690033E-2,-4.959583282E-2
9.190077100E0,6.854748726E-2,-7.985115051E-3,1.424980164E-2
9.195077100E0,3.352704644E-2,-2.753734589E-3,1.148147583E-1
9.200077100E0,3.479802608E-2,3.003120422E-3,2.038259506E-1
9.205077100E0,6.964744627E-2,2.966403961E-3,2.543983459E-1
9.210077100E0,1.291406900E-1,1.399755478E-2,2.574520111E-1
9.215077100E0,2.031255364E-1,1.751995087E-2,2.461528778E-1
9.220077100E0,2.585163713E-1,2.350902557E-2,2.431440353E-1
9.225077100E0,2.930819988E-1,2.529525757E-2,2.437191010E-1
9.230077100E0,3.064632118E-1,4.132556915E-2,2.741861343E-1
9.235077100E0,3.017265797E-1,5.670070648E-2,3.253669739E-1
9.240077100E0,2.986339331E-1,6.328344345E-2,3.067264557E-1
9.245077100E0,2.887297869E-1,5.464506149E-2,3.070001602E-1
9.250077100E0,2.989608645E-1,4.819726944E-2,3.184890747E-1
9.255077100E0,3.226158023E-1,3.241825104E-2,2.803249359E-1
9.260077100E0,3.405614197E-1,3.211259842E-2,2.581005096E-1
9.265077100E0,3.507567346E-1,4.986143112E-2,2.254476547E-1
9.270077100E0,3.340656459E-1,5.791807175E-2,2.187709808E-1
9.275077100E0,3.121040463E-1,8.750152588E-2,2.167167664E-1
9.280077100E0,3.096668720E-1,8.234453201E-2,1.961193085E-1
9.285077100E0,3.165753484E-1,6.594753265E-2,1.711721420E-1
9.290077100E0,3.089135885E-1,3.738975525E-2,1.521587372E-1
9.295077100E0,3.090487719E-1,2.917003632E-2,1.381301880E-1
9.300077100E0,3.204605579E-1,2.471685410E-2,8.495712280E-2
9.305077100E0,3.458015919E-1,3.662633896E-2,3.203392029E-2
9.310077100E0,3.400653899E-1,3.524637222E-2,9.065628052E-3
9.315077100E0,3.177561164E-1,4.215955734E-2,1.319885254E-2
9.320077100E0,2.988399863E-1,3.721380234E-2,1.986789703E-2
9.325077100E0,2.890670598E-1,2.474594116E-2,-7.982254028E-3
9.330077100E0,2.751340866E-1,3.408670425E-2,-3.647327423E-2
9.335077100E0,2.860618234E-1,3.356838226E-2,-8.538150787E-2
9.340077100E0,2.690818906E-1,4.318904877E-2,-1.047220230E-1
9.345077100E0,2.610874474E-1,5.780267715E-2,-1.231403351E-1
9.350077100E0,2.484848499E-1,5.029058456E-2,-1.470479965E-1
9.355077100E0,2.518569231E-1,3.338956833E-2,-1.598072052E-1
9.360077100E0,2.545962632E-1,2.837514877E-2,-1.882591248E-1
9.365077100E0,2.085881233E-1,2.818107605E-2,-1.599273682E-1
9.370077100E0,1.531820297E-1,1.660919189E-2,-1.079311371E-1
9.375077100E0,1.269705892E-1,1.868343353E-2,-8.414649963E-2
9.380077100E0,1.080212593E-1,-9.027481079E-3,-7.147407532E-2
9.385077100E0,1.277039349E-1,-2.698469162E-2,-9.222888947E-2
9.390077100E0,1.386038065E-1,-5.834245682E-2,-9.356307983E-2
9.395077100E0,1.469134986E-1,-5.435609818E-2,-1.188898087E-1
9.400077100E0,1.520848870E-1,-4.407215118E-2,-1.645002365E-1
9.405077100E0,1.483707130E-1,-2.596187592E-2,-1.885852814E-1
9.410077100E0,1.530220509E-1,-1.570892334E-2,-2.199316025E-1
9.415077100E0,1.656722724E-1,-1.402187347E-2,-2.477741241E-1
9.420077100E0,1.449390054E-1,-9.296417236E-3,-2.582635880E-1
9.425077100E0,1.191582978E-1,-1.187467575E-2,-2.289876938E-1
9.430077100E0,8.180943131E-2,2.695560455E-3,-2.191162109E-1
9.435077100E0,5.838227272E-2,4.815578461E-3,-1.923904419E-1
9.440077100E0,2.964344621E-2,1.882362366E-2,-1.332674026E-1
9.445077100E0,-2.436479926E-2,-1.217412949E-2,-1.999950409E-2
9.450077100E0,-7.249939442E-2,-4.736661911E-2,7.542991638E-2
9.455077100E0,-8.452385664E-2,-9.078931808E-2,1.509819031E-1
9.460077100E0,-1.113080233E-1,-9.702062607E-2,1.949872971E-1
9.465077100E0,-1.336333752E-1,-9.912824631E-2,2.237882614E-1
9.470077100E0,-1.476587653E-1,-9.662151337E-2,2.213716507E-1
9.475077100E0,-1.279764324E-1,-9.577035904E-2,1.678810120E-1
9.480077100E0,-9.922859073E-2,-1.043119431E-1,8.359718323E-2
9.485077100E0,-7.870557904E-2,-9.325981140E-2,-2.356338501E-2
9.490077100E0,-5.556073785E-2,-6.760311127E-2,-1.531524658E-1
9.495077100E0,-3.030371666E-2,-1.500415802E-2,-2.780389786E-1
9.500077100E0,-1.984217763E-2,3.734588623E-2,-3.386182785E-1
9.505077100E0,-4.829031229E-2,7.441759109E-2,-3.503751755E-1
9.510077100E0,-7.406744361E-2,9.172439575E-2,-3.120527267E-1
9.515077100E0,-9.480738640E-2,9.460306168E-2,-2.420511246E-1
9.520077100E0,-1.104949117E-1,7.689905167E-2,-1.817131042E-1
9.525077100E0,-1.410514563E-1,7.352542877E-2,-1.205253601E-1
9.530077100E0,-1.702926308E-1,7.473564148E-2,-7.135868073E-2
9.535077100E0,-2.014637142E-1,5.894708633E-2,-8.111000061E-3
9.540077100E0,-2.351089120E-1,5.659675598E-2,8.491611481E-2
9.545077100E0,-2.282422185E-1,4.734086990E-2,1.665964127E-1
9.550077100E0,-2.268956006E-1,3.019714355E-2,2.381277084E-1
9.555077100E0,-2.016032636E-1,2.615451813E-3,2.554807663E-1
9.560077100E0,-1.906463504E-1,-2.963447571E-2,2.800140381E-1
9.565077100E0,-2.194490731E-1,-2.276945114E-2,3.144531250E-1
9.570077100E0,-2.163008302E-1,-1.097440720E-2,3.341350555E-1
9.575077100E0,-2.022750825E-1,-7.283687592E-3,3.052768707E-1
9.580077100E0,-1.503184438E-1,-1.842546463E-2,2.633047104E-1
9.585077100E0,-1.337845773E-1,-1.923656464E-2,2.158823013E-1
9.590077100E0,-1.082177460E-1,-2.686786652E-2,1.584386826E-1
9.595077100E0,-9.281048179E-2,-1.594734192E-2,1.058568954E-1
9.600077100E0,-9.854999185E-2,8.421897888E-3,6.627178192E-2
9.605077100E0,-9.015738964E-2,-2.542972565E-3,3.320312500E-2
9.610077100E0,-9.799377620E-2,-8.507728577E-3,-1.688003540E-3
9.615077100E0,-8.259509504E-2,-2.616739273E-2,-3.528690338E-2
9.620077100E0,-7.444092631E-2,-5.756855011E-2,-9.059143066E-2
9.625077100E0,-6.788913906E-2,-6.288814545E-2,-1.010894775E-1
9.630077100E0,-6.744988263E-2,-4.154729843E-2,-1.323432922E-1
9.635077100E0,-9.414289892E-2,-2.920007706E-2,-1.215505600E-1
9.640077100E0,-1.270526648E-1,-1.884317398E-2,-1.144485474E-1
9.645077100E0,-1.174308360E-1,-3.647232056E-2,-7.812023163E-2
9.650077100E0,-8.675427735E-2,-5.399084091E-2,-8.663177490E-2
9.655077100E0,-4.050600529E-2,-6.145811081E-2,-1.105155945E-1
9.660077100E0,-2.015149593E-2,-8.087921143E-2,-1.559190750E-1
9.665077100E0,9.965747595E-3,-8.503389359E-2,-2.054281235E-1
9.670077100E0,2.259877324E-2,-6.687688828E-2,-2.464199066E-1
9.675077100E0,2.359575033E-2,-5.073928833E-2,-2.515764236E-1
9.680077100E0,2.394178510E-2,-2.948045731E-2,-2.044525146E-1
9.685077100E0,1.886281371E-2,-1.435422897E-2,-1.678056717E-1
9.690077100E0,1.324567199E-2,-2.727317810E-2,-1.453905106E-1
9.695077100E0,2.880945802E-2,-2.619600296E-2,-9.755039215E-2
9.700077100E0,5.180436373E-2,-3.478384018E-2,-1.023683548E-1
9.705077100E0,7.480525970E-2,-2.362489700E-2,-1.172046661E-1
9.710077100E0,9.958952665E-2,6.309509277E-3,-1.546964645E-1
9.715077100E0,1.123923063E-1,1.298141479E-2,-1.340074539E-1
9.720077100E0,1.037829816E-1,4.633378983E-2,-8.660316467E-2
9.725077100E0,9.498271346E-2,4.576063156E-2,-4.477691650E-2
9.730077100E0,8.732908964E-2,4.597330093E-2,2.073669434E-2
9.735077100E0,9.280931950E-2,4.567670822E-2,4.203033447E-2
9.740077100E0,8.610090613E-2,4.849195480E-2,4.133224487E-2
9.745077100E0,8.038410544E-2,4.891824722E-2,5.772495270E-2
9.750077100E0,8.986082673E-2,6.783819199E-2,4.028701782E-2
9.755077100E0,9.346279502E-2,7.610845566E-2,1.488304138E-2
9.760077100E0,1.131308675E-1,8.364915848E-2,3.148365021E-2
9.765077100E0,1.195779443E-1,7.994461060E-2,5.521297455E-2
9.770077100E0,8.724996448E-2,8.633184433E-2,1.039056778E-1
9.775077100E0,4.332369566E-2,6.546640396E-2,1.367979050E-1
9.780077100E0,4.173070192E-3,4.581260681E-2,1.699533463E-1
9.785077100E0,-1.997733116E-2,2.226543427E-2,2.114591599E-1
9.790077100E0,-1.229566336E-2,1.456737518E-3,2.301139832E-1
9.795077100E0,-1.256024837E-2,-1.087284088E-2,2.249574661E-1
9.800077100E0,1.856714487E-3,5.782604218E-3,1.744375229E-1
9.805077100E0,-1.609653234E-3,1.022338867E-2,1.402597427E-1
9.810077100E0,-3.420764208E-2,3.067207336E-2,1.560344696E-1
9.815077100E0,-4.519328475E-2,2.161788940E-2,1.783990860E-1
9.820077100E0,-3.378719091E-2,9.114265442E-3,1.617527008E-1
9.825077100E0,-3.354519606E-3,-2.568721771E-3,1.235313416E-1
9.830077100E0,1.149669290E-2,-1.065301895E-2,8.445358276E-2
9.835077100E0,4.176306725E-2,-3.373575211E-2,2.979755402E-2
9.840077100E0,4.883825779E-2,-3.800630569E-2,-1.232814789E-2
9.845077100E0,7.137238979E-2,-3.583908081E-2,-5.329418182E-2
9.850077100E0,8.155131340E-2,-4.028987885E-2,-6.266784668E-2
9.855077100E0,7.239395380E-2,-4.036426544E-2,-7.304000854E-2
9.860077100E0,4.754033685E-2,-4.606246948E-2,-6.556320190E-2
9.865077100E0,2.548921108E-2,-3.452157974E-2,-4.568290710E-2
9.870077100E0,1.833999157E-2,-4.147195816E-2,-1.637172699E-2
9.875077100E0,1.553982496E-2,-7.238912582E-2,-2.501487732E-3
9.880077100E0,3.947272897E-2,-8.528804779E-2,-9.775161743E-4
9.885077100E0,3.307801485E-2,-7.758283615E-2,1.425457001E-2
9.890077100E0,2.814069390E-2,-8.549833298E-2,1.261043549E-2
9.895077100E0,1.053121686E-2,-9.232664108E-2,4.950046539E-2
9.900077100E0,7.970869541E-3,-9.060192108E-2,5.365943909E-2
9.905077100E0,4.749861360E-2,-9.398794174E-2,6.354141235E-2
9.910077100E0,6.253686547E-2,-1.005449295E-1,4.127311707E-2
9.915077100E0,8.132317662E-2,-9.886074066E-2,3.731346130E-2
9.920077100E0,9.810218215E-2,-9.982824326E-2,1.058006287E-2
9.925077100E0,1.248490512E-1,-9.547281265E-2,-2.877140045E-2
9.930077100E0,1.167607605E-1,-9.760808945E-2,-4.980468750E-2
9.935077100E0,1.207968295E-1,-7.325172424E-2,-5.855941772E-2
9.940077100E0,1.258811951E-1,-6.133890152E-2,-4.863262177E-2
9.945077100E0,1.260024905E-1,-6.527328491E-2,-3.971672058E-2
9.950077100E0,1.195617020E-1,-6.794166565E-2,-1.817512512E-2
9.955077100E0,9.275427461E-2,-6.680822372E-2,3.641510010E-2
9.960077100E0,6.417375803E-2,-6.125164032E-2,5.824089050E-2
